Subj,ShapeNameC,ShapeColorC,Condition,Trial,TrialBin,ResponseTime,bodyShape,Response,Correct,totalCorrect,NoticedColorStr,NoticedColorC
2,0.5,-0.5,2,1,1,4154,1,1,1,235,noticers,0.5
2,0.5,-0.5,2,2,1,2444,1,2,0,235,noticers,0.5
2,0.5,-0.5,2,3,1,1107,2,1,0,235,noticers,0.5
2,0.5,-0.5,2,4,1,2589,2,2,1,235,noticers,0.5
2,0.5,-0.5,2,5,1,894,1,1,1,235,noticers,0.5
2,0.5,-0.5,2,6,1,962,2,2,1,235,noticers,0.5
2,0.5,-0.5,2,7,1,755,2,2,1,235,noticers,0.5
2,0.5,-0.5,2,8,1,908,2,2,1,235,noticers,0.5
2,0.5,-0.5,2,9,1,864,1,1,1,235,noticers,0.5
2,0.5,-0.5,2,10,1,660,2,2,1,235,noticers,0.5
2,0.5,-0.5,2,11,1,786,1,1,1,235,noticers,0.5
2,0.5,-0.5,2,12,1,2090,2,2,1,235,noticers,0.5
2,0.5,-0.5,2,13,1,926,1,1,1,235,noticers,0.5
2,0.5,-0.5,2,14,1,2097,1,2,0,235,noticers,0.5
2,0.5,-0.5,2,15,1,1077,2,1,0,235,noticers,0.5
2,0.5,-0.5,2,16,1,1409,1,1,1,235,noticers,0.5
2,0.5,-0.5,2,17,1,656,2,2,1,235,noticers,0.5
2,0.5,-0.5,2,18,1,702,1,1,1,235,noticers,0.5
2,0.5,-0.5,2,19,1,1193,1,1,1,235,noticers,0.5
2,0.5,-0.5,2,20,1,801,1,1,1,235,noticers,0.5
2,0.5,-0.5,2,21,1,745,1,1,1,235,noticers,0.5
2,0.5,-0.5,2,22,1,642,2,2,1,235,noticers,0.5
2,0.5,-0.5,2,23,1,944,2,2,1,235,noticers,0.5
2,0.5,-0.5,2,24,1,1170,1,1,1,235,noticers,0.5
2,0.5,-0.5,2,25,1,1163,1,1,1,235,noticers,0.5
2,0.5,-0.5,2,26,1,596,2,2,1,235,noticers,0.5
2,0.5,-0.5,2,27,1,596,2,2,1,235,noticers,0.5
2,0.5,-0.5,2,28,1,532,2,2,1,235,noticers,0.5
2,0.5,-0.5,2,29,1,1014,2,2,1,235,noticers,0.5
2,0.5,-0.5,2,30,1,549,2,2,1,235,noticers,0.5
2,0.5,-0.5,2,31,1,631,2,2,1,235,noticers,0.5
2,0.5,-0.5,2,32,1,997,1,1,1,235,noticers,0.5
2,0.5,-0.5,2,33,1,725,2,2,1,235,noticers,0.5
2,0.5,-0.5,2,34,1,784,2,2,1,235,noticers,0.5
2,0.5,-0.5,2,35,1,680,1,1,1,235,noticers,0.5
2,0.5,-0.5,2,36,1,692,1,1,1,235,noticers,0.5
2,0.5,-0.5,2,37,1,608,1,1,1,235,noticers,0.5
2,0.5,-0.5,2,38,1,1439,2,2,1,235,noticers,0.5
2,0.5,-0.5,2,39,1,605,1,1,1,235,noticers,0.5
2,0.5,-0.5,2,40,1,509,1,1,1,235,noticers,0.5
2,0.5,-0.5,2,41,2,1879,2,2,1,235,noticers,0.5
2,0.5,-0.5,2,42,2,724,1,1,1,235,noticers,0.5
2,0.5,-0.5,2,43,2,607,2,2,1,235,noticers,0.5
2,0.5,-0.5,2,44,2,750,1,1,1,235,noticers,0.5
2,0.5,-0.5,2,45,2,792,1,1,1,235,noticers,0.5
2,0.5,-0.5,2,46,2,704,2,2,1,235,noticers,0.5
2,0.5,-0.5,2,47,2,683,2,2,1,235,noticers,0.5
2,0.5,-0.5,2,48,2,550,2,2,1,235,noticers,0.5
2,0.5,-0.5,2,49,2,568,1,1,1,235,noticers,0.5
2,0.5,-0.5,2,50,2,584,2,2,1,235,noticers,0.5
2,0.5,-0.5,2,51,2,552,2,2,1,235,noticers,0.5
2,0.5,-0.5,2,52,2,858,1,1,1,235,noticers,0.5
2,0.5,-0.5,2,53,2,751,1,1,1,235,noticers,0.5
2,0.5,-0.5,2,54,2,520,2,2,1,235,noticers,0.5
2,0.5,-0.5,2,55,2,698,1,1,1,235,noticers,0.5
2,0.5,-0.5,2,56,2,1142,2,2,1,235,noticers,0.5
2,0.5,-0.5,2,57,2,512,2,2,1,235,noticers,0.5
2,0.5,-0.5,2,58,2,644,2,2,1,235,noticers,0.5
2,0.5,-0.5,2,59,2,706,1,1,1,235,noticers,0.5
2,0.5,-0.5,2,60,2,781,2,2,1,235,noticers,0.5
2,0.5,-0.5,2,61,2,614,1,1,1,235,noticers,0.5
2,0.5,-0.5,2,62,2,996,2,2,1,235,noticers,0.5
2,0.5,-0.5,2,63,2,820,2,1,0,235,noticers,0.5
2,0.5,-0.5,2,64,2,731,1,1,1,235,noticers,0.5
2,0.5,-0.5,2,65,2,694,2,2,1,235,noticers,0.5
2,0.5,-0.5,2,66,2,722,1,1,1,235,noticers,0.5
2,0.5,-0.5,2,67,2,828,2,2,1,235,noticers,0.5
2,0.5,-0.5,2,68,2,1138,1,1,1,235,noticers,0.5
2,0.5,-0.5,2,69,2,700,1,1,1,235,noticers,0.5
2,0.5,-0.5,2,70,2,856,2,2,1,235,noticers,0.5
2,0.5,-0.5,2,71,2,1517,2,2,1,235,noticers,0.5
2,0.5,-0.5,2,72,2,712,1,1,1,235,noticers,0.5
2,0.5,-0.5,2,73,2,835,1,1,1,235,noticers,0.5
2,0.5,-0.5,2,74,2,633,1,1,1,235,noticers,0.5
2,0.5,-0.5,2,75,2,550,1,1,1,235,noticers,0.5
2,0.5,-0.5,2,76,2,568,1,1,1,235,noticers,0.5
2,0.5,-0.5,2,77,2,856,2,2,1,235,noticers,0.5
2,0.5,-0.5,2,78,2,1102,1,1,1,235,noticers,0.5
2,0.5,-0.5,2,79,2,777,1,1,1,235,noticers,0.5
2,0.5,-0.5,2,80,2,722,1,1,1,235,noticers,0.5
2,0.5,-0.5,2,81,3,1255,2,2,1,235,noticers,0.5
2,0.5,-0.5,2,82,3,813,2,2,1,235,noticers,0.5
2,0.5,-0.5,2,83,3,644,1,1,1,235,noticers,0.5
2,0.5,-0.5,2,84,3,1282,2,2,1,235,noticers,0.5
2,0.5,-0.5,2,85,3,647,2,2,1,235,noticers,0.5
2,0.5,-0.5,2,86,3,597,1,1,1,235,noticers,0.5
2,0.5,-0.5,2,87,3,1172,1,1,1,235,noticers,0.5
2,0.5,-0.5,2,88,3,812,1,1,1,235,noticers,0.5
2,0.5,-0.5,2,89,3,644,2,2,1,235,noticers,0.5
2,0.5,-0.5,2,90,3,1506,1,1,1,235,noticers,0.5
2,0.5,-0.5,2,91,3,605,2,2,1,235,noticers,0.5
2,0.5,-0.5,2,92,3,781,2,2,1,235,noticers,0.5
2,0.5,-0.5,2,93,3,789,1,1,1,235,noticers,0.5
2,0.5,-0.5,2,94,3,781,2,2,1,235,noticers,0.5
2,0.5,-0.5,2,95,3,661,2,2,1,235,noticers,0.5
2,0.5,-0.5,2,96,3,595,2,2,1,235,noticers,0.5
2,0.5,-0.5,2,97,3,835,2,2,1,235,noticers,0.5
2,0.5,-0.5,2,98,3,601,2,2,1,235,noticers,0.5
2,0.5,-0.5,2,99,3,760,1,1,1,235,noticers,0.5
2,0.5,-0.5,2,100,3,625,1,1,1,235,noticers,0.5
2,0.5,-0.5,2,101,3,751,2,2,1,235,noticers,0.5
2,0.5,-0.5,2,102,3,1129,1,1,1,235,noticers,0.5
2,0.5,-0.5,2,103,3,691,1,1,1,235,noticers,0.5
2,0.5,-0.5,2,104,3,991,2,2,1,235,noticers,0.5
2,0.5,-0.5,2,105,3,783,1,1,1,235,noticers,0.5
2,0.5,-0.5,2,106,3,775,2,2,1,235,noticers,0.5
2,0.5,-0.5,2,107,3,671,1,1,1,235,noticers,0.5
2,0.5,-0.5,2,108,3,636,2,2,1,235,noticers,0.5
2,0.5,-0.5,2,109,3,986,2,2,1,235,noticers,0.5
2,0.5,-0.5,2,110,3,730,2,2,1,235,noticers,0.5
2,0.5,-0.5,2,111,3,677,2,2,1,235,noticers,0.5
2,0.5,-0.5,2,112,3,849,2,2,1,235,noticers,0.5
2,0.5,-0.5,2,113,3,647,1,1,1,235,noticers,0.5
2,0.5,-0.5,2,114,3,1332,2,2,1,235,noticers,0.5
2,0.5,-0.5,2,115,3,854,1,1,1,235,noticers,0.5
2,0.5,-0.5,2,116,3,603,2,2,1,235,noticers,0.5
2,0.5,-0.5,2,117,3,731,1,1,1,235,noticers,0.5
2,0.5,-0.5,2,118,3,918,1,1,1,235,noticers,0.5
2,0.5,-0.5,2,119,3,792,2,2,1,235,noticers,0.5
2,0.5,-0.5,2,120,3,719,1,1,1,235,noticers,0.5
2,0.5,-0.5,2,121,4,2071,1,1,1,235,noticers,0.5
2,0.5,-0.5,2,122,4,1308,1,1,1,235,noticers,0.5
2,0.5,-0.5,2,123,4,624,2,2,1,235,noticers,0.5
2,0.5,-0.5,2,124,4,702,1,1,1,235,noticers,0.5
2,0.5,-0.5,2,125,4,778,2,2,1,235,noticers,0.5
2,0.5,-0.5,2,126,4,626,2,2,1,235,noticers,0.5
2,0.5,-0.5,2,127,4,656,2,2,1,235,noticers,0.5
2,0.5,-0.5,2,128,4,894,1,1,1,235,noticers,0.5
2,0.5,-0.5,2,129,4,706,1,1,1,235,noticers,0.5
2,0.5,-0.5,2,130,4,605,2,2,1,235,noticers,0.5
2,0.5,-0.5,2,131,4,684,1,1,1,235,noticers,0.5
2,0.5,-0.5,2,132,4,552,1,1,1,235,noticers,0.5
2,0.5,-0.5,2,133,4,617,2,2,1,235,noticers,0.5
2,0.5,-0.5,2,134,4,631,2,2,1,235,noticers,0.5
2,0.5,-0.5,2,135,4,630,1,1,1,235,noticers,0.5
2,0.5,-0.5,2,136,4,629,2,2,1,235,noticers,0.5
2,0.5,-0.5,2,137,4,596,2,2,1,235,noticers,0.5
2,0.5,-0.5,2,138,4,612,1,1,1,235,noticers,0.5
2,0.5,-0.5,2,139,4,659,2,2,1,235,noticers,0.5
2,0.5,-0.5,2,140,4,719,2,2,1,235,noticers,0.5
2,0.5,-0.5,2,141,4,522,2,2,1,235,noticers,0.5
2,0.5,-0.5,2,142,4,637,1,1,1,235,noticers,0.5
2,0.5,-0.5,2,143,4,619,2,2,1,235,noticers,0.5
2,0.5,-0.5,2,144,4,697,2,2,1,235,noticers,0.5
2,0.5,-0.5,2,145,4,693,2,2,1,235,noticers,0.5
2,0.5,-0.5,2,146,4,1393,2,2,1,235,noticers,0.5
2,0.5,-0.5,2,147,4,1377,1,1,1,235,noticers,0.5
2,0.5,-0.5,2,148,4,689,1,1,1,235,noticers,0.5
2,0.5,-0.5,2,149,4,654,1,1,1,235,noticers,0.5
2,0.5,-0.5,2,150,4,587,1,1,1,235,noticers,0.5
2,0.5,-0.5,2,151,4,1035,1,1,1,235,noticers,0.5
2,0.5,-0.5,2,152,4,489,1,1,1,235,noticers,0.5
2,0.5,-0.5,2,153,4,620,2,2,1,235,noticers,0.5
2,0.5,-0.5,2,154,4,603,1,1,1,235,noticers,0.5
2,0.5,-0.5,2,155,4,778,1,1,1,235,noticers,0.5
2,0.5,-0.5,2,156,4,691,1,1,1,235,noticers,0.5
2,0.5,-0.5,2,157,4,639,2,2,1,235,noticers,0.5
2,0.5,-0.5,2,158,4,589,1,1,1,235,noticers,0.5
2,0.5,-0.5,2,159,4,573,1,1,1,235,noticers,0.5
2,0.5,-0.5,2,160,4,573,2,2,1,235,noticers,0.5
2,0.5,-0.5,2,161,5,1005,1,1,1,235,noticers,0.5
2,0.5,-0.5,2,162,5,684,1,1,1,235,noticers,0.5
2,0.5,-0.5,2,163,5,504,1,1,1,235,noticers,0.5
2,0.5,-0.5,2,164,5,556,1,1,1,235,noticers,0.5
2,0.5,-0.5,2,165,5,621,2,2,1,235,noticers,0.5
2,0.5,-0.5,2,166,5,588,1,1,1,235,noticers,0.5
2,0.5,-0.5,2,167,5,603,1,1,1,235,noticers,0.5
2,0.5,-0.5,2,168,5,570,2,2,1,235,noticers,0.5
2,0.5,-0.5,2,169,5,699,1,1,1,235,noticers,0.5
2,0.5,-0.5,2,170,5,614,1,1,1,235,noticers,0.5
2,0.5,-0.5,2,171,5,1062,2,2,1,235,noticers,0.5
2,0.5,-0.5,2,172,5,611,1,1,1,235,noticers,0.5
2,0.5,-0.5,2,173,5,642,2,2,1,235,noticers,0.5
2,0.5,-0.5,2,174,5,639,2,2,1,235,noticers,0.5
2,0.5,-0.5,2,175,5,685,2,2,1,235,noticers,0.5
2,0.5,-0.5,2,176,5,793,1,1,1,235,noticers,0.5
2,0.5,-0.5,2,177,5,625,2,2,1,235,noticers,0.5
2,0.5,-0.5,2,178,5,1200,1,1,1,235,noticers,0.5
2,0.5,-0.5,2,179,5,1336,1,1,1,235,noticers,0.5
2,0.5,-0.5,2,180,5,537,2,2,1,235,noticers,0.5
2,0.5,-0.5,2,181,5,571,1,1,1,235,noticers,0.5
2,0.5,-0.5,2,182,5,684,2,2,1,235,noticers,0.5
2,0.5,-0.5,2,183,5,648,1,1,1,235,noticers,0.5
2,0.5,-0.5,2,184,5,630,1,1,1,235,noticers,0.5
2,0.5,-0.5,2,185,5,564,1,1,1,235,noticers,0.5
2,0.5,-0.5,2,186,5,470,1,1,1,235,noticers,0.5
2,0.5,-0.5,2,187,5,569,1,1,1,235,noticers,0.5
2,0.5,-0.5,2,188,5,602,1,1,1,235,noticers,0.5
2,0.5,-0.5,2,189,5,505,2,2,1,235,noticers,0.5
2,0.5,-0.5,2,190,5,541,1,1,1,235,noticers,0.5
2,0.5,-0.5,2,191,5,591,1,1,1,235,noticers,0.5
2,0.5,-0.5,2,192,5,543,2,2,1,235,noticers,0.5
2,0.5,-0.5,2,193,5,769,2,2,1,235,noticers,0.5
2,0.5,-0.5,2,194,5,616,2,2,1,235,noticers,0.5
2,0.5,-0.5,2,195,5,583,1,1,1,235,noticers,0.5
2,0.5,-0.5,2,196,5,551,1,1,1,235,noticers,0.5
2,0.5,-0.5,2,197,5,584,2,2,1,235,noticers,0.5
2,0.5,-0.5,2,198,5,584,2,2,1,235,noticers,0.5
2,0.5,-0.5,2,199,5,1080,1,1,1,235,noticers,0.5
2,0.5,-0.5,2,200,5,1141,1,1,1,235,noticers,0.5
2,0.5,-0.5,2,201,6,752,1,1,1,235,noticers,0.5
2,0.5,-0.5,2,202,6,745,1,1,1,235,noticers,0.5
2,0.5,-0.5,2,203,6,659,2,2,1,235,noticers,0.5
2,0.5,-0.5,2,204,6,849,2,2,1,235,noticers,0.5
2,0.5,-0.5,2,205,6,550,2,2,1,235,noticers,0.5
2,0.5,-0.5,2,206,6,664,2,2,1,235,noticers,0.5
2,0.5,-0.5,2,207,6,485,1,1,1,235,noticers,0.5
2,0.5,-0.5,2,208,6,600,2,2,1,235,noticers,0.5
2,0.5,-0.5,2,209,6,695,2,2,1,235,noticers,0.5
2,0.5,-0.5,2,210,6,627,2,2,1,235,noticers,0.5
2,0.5,-0.5,2,211,6,514,1,1,1,235,noticers,0.5
2,0.5,-0.5,2,212,6,437,1,1,1,235,noticers,0.5
2,0.5,-0.5,2,213,6,635,1,1,1,235,noticers,0.5
2,0.5,-0.5,2,214,6,649,2,2,1,235,noticers,0.5
2,0.5,-0.5,2,215,6,710,1,1,1,235,noticers,0.5
2,0.5,-0.5,2,216,6,593,1,1,1,235,noticers,0.5
2,0.5,-0.5,2,217,6,561,2,2,1,235,noticers,0.5
2,0.5,-0.5,2,218,6,562,2,2,1,235,noticers,0.5
2,0.5,-0.5,2,219,6,596,1,1,1,235,noticers,0.5
2,0.5,-0.5,2,220,6,788,1,1,1,235,noticers,0.5
2,0.5,-0.5,2,221,6,588,2,2,1,235,noticers,0.5
2,0.5,-0.5,2,222,6,523,2,2,1,235,noticers,0.5
2,0.5,-0.5,2,223,6,654,2,2,1,235,noticers,0.5
2,0.5,-0.5,2,224,6,539,2,2,1,235,noticers,0.5
2,0.5,-0.5,2,225,6,477,1,1,1,235,noticers,0.5
2,0.5,-0.5,2,226,6,610,2,2,1,235,noticers,0.5
2,0.5,-0.5,2,227,6,689,2,2,1,235,noticers,0.5
2,0.5,-0.5,2,228,6,525,2,2,1,235,noticers,0.5
2,0.5,-0.5,2,229,6,1247,2,2,1,235,noticers,0.5
2,0.5,-0.5,2,230,6,661,1,1,1,235,noticers,0.5
2,0.5,-0.5,2,231,6,786,1,1,1,235,noticers,0.5
2,0.5,-0.5,2,232,6,618,1,1,1,235,noticers,0.5
2,0.5,-0.5,2,233,6,457,2,2,1,235,noticers,0.5
2,0.5,-0.5,2,234,6,494,2,2,1,235,noticers,0.5
2,0.5,-0.5,2,235,6,530,2,2,1,235,noticers,0.5
2,0.5,-0.5,2,236,6,548,2,2,1,235,noticers,0.5
2,0.5,-0.5,2,237,6,502,1,1,1,235,noticers,0.5
2,0.5,-0.5,2,238,6,505,2,2,1,235,noticers,0.5
2,0.5,-0.5,2,239,6,605,1,1,1,235,noticers,0.5
2,0.5,-0.5,2,240,6,748,2,2,1,235,noticers,0.5
3,-0.5,0.5,3,1,1,1991,2,1,1,234,noticers,0.5
3,-0.5,0.5,3,2,1,895,1,2,1,234,noticers,0.5
3,-0.5,0.5,3,3,1,1010,1,2,1,234,noticers,0.5
3,-0.5,0.5,3,4,1,2769,2,1,1,234,noticers,0.5
3,-0.5,0.5,3,5,1,2379,2,2,0,234,noticers,0.5
3,-0.5,0.5,3,6,1,932,1,2,1,234,noticers,0.5
3,-0.5,0.5,3,7,1,950,2,1,1,234,noticers,0.5
3,-0.5,0.5,3,8,1,760,2,1,1,234,noticers,0.5
3,-0.5,0.5,3,9,1,1792,1,2,1,234,noticers,0.5
3,-0.5,0.5,3,10,1,849,2,1,1,234,noticers,0.5
3,-0.5,0.5,3,11,1,1127,1,2,1,234,noticers,0.5
3,-0.5,0.5,3,12,1,1569,1,1,0,234,noticers,0.5
3,-0.5,0.5,3,13,1,762,2,1,1,234,noticers,0.5
3,-0.5,0.5,3,14,1,724,1,2,1,234,noticers,0.5
3,-0.5,0.5,3,15,1,525,2,2,0,234,noticers,0.5
3,-0.5,0.5,3,16,1,864,2,1,1,234,noticers,0.5
3,-0.5,0.5,3,17,1,485,1,2,1,234,noticers,0.5
3,-0.5,0.5,3,18,1,1097,1,2,1,234,noticers,0.5
3,-0.5,0.5,3,19,1,582,2,1,1,234,noticers,0.5
3,-0.5,0.5,3,20,1,502,2,1,1,234,noticers,0.5
3,-0.5,0.5,3,21,1,554,1,2,1,234,noticers,0.5
3,-0.5,0.5,3,22,1,570,1,2,1,234,noticers,0.5
3,-0.5,0.5,3,23,1,603,1,2,1,234,noticers,0.5
3,-0.5,0.5,3,24,1,1338,1,2,1,234,noticers,0.5
3,-0.5,0.5,3,25,1,588,1,2,1,234,noticers,0.5
3,-0.5,0.5,3,26,1,476,2,1,1,234,noticers,0.5
3,-0.5,0.5,3,27,1,545,1,2,1,234,noticers,0.5
3,-0.5,0.5,3,28,1,499,2,1,1,234,noticers,0.5
3,-0.5,0.5,3,29,1,502,2,1,1,234,noticers,0.5
3,-0.5,0.5,3,30,1,489,1,2,1,234,noticers,0.5
3,-0.5,0.5,3,31,1,685,1,2,1,234,noticers,0.5
3,-0.5,0.5,3,32,1,473,1,2,1,234,noticers,0.5
3,-0.5,0.5,3,33,1,526,1,2,1,234,noticers,0.5
3,-0.5,0.5,3,34,1,705,1,2,1,234,noticers,0.5
3,-0.5,0.5,3,35,1,508,2,1,1,234,noticers,0.5
3,-0.5,0.5,3,36,1,590,1,2,1,234,noticers,0.5
3,-0.5,0.5,3,37,1,670,2,1,1,234,noticers,0.5
3,-0.5,0.5,3,38,1,651,1,2,1,234,noticers,0.5
3,-0.5,0.5,3,39,1,856,1,2,1,234,noticers,0.5
3,-0.5,0.5,3,40,1,542,1,2,1,234,noticers,0.5
3,-0.5,0.5,3,41,2,1066,2,1,1,234,noticers,0.5
3,-0.5,0.5,3,42,2,550,1,2,1,234,noticers,0.5
3,-0.5,0.5,3,43,2,472,1,2,1,234,noticers,0.5
3,-0.5,0.5,3,44,2,428,1,2,1,234,noticers,0.5
3,-0.5,0.5,3,45,2,499,1,2,1,234,noticers,0.5
3,-0.5,0.5,3,46,2,422,1,2,1,234,noticers,0.5
3,-0.5,0.5,3,47,2,557,1,2,1,234,noticers,0.5
3,-0.5,0.5,3,48,2,718,2,1,1,234,noticers,0.5
3,-0.5,0.5,3,49,2,648,1,2,1,234,noticers,0.5
3,-0.5,0.5,3,50,2,502,2,1,1,234,noticers,0.5
3,-0.5,0.5,3,51,2,441,1,2,1,234,noticers,0.5
3,-0.5,0.5,3,52,2,479,2,1,1,234,noticers,0.5
3,-0.5,0.5,3,53,2,500,1,2,1,234,noticers,0.5
3,-0.5,0.5,3,54,2,487,2,1,1,234,noticers,0.5
3,-0.5,0.5,3,55,2,475,1,2,1,234,noticers,0.5
3,-0.5,0.5,3,56,2,528,1,2,1,234,noticers,0.5
3,-0.5,0.5,3,57,2,482,1,2,1,234,noticers,0.5
3,-0.5,0.5,3,58,2,534,2,1,1,234,noticers,0.5
3,-0.5,0.5,3,59,2,472,1,1,0,234,noticers,0.5
3,-0.5,0.5,3,60,2,557,2,1,1,234,noticers,0.5
3,-0.5,0.5,3,61,2,542,1,2,1,234,noticers,0.5
3,-0.5,0.5,3,62,2,576,2,1,1,234,noticers,0.5
3,-0.5,0.5,3,63,2,641,1,2,1,234,noticers,0.5
3,-0.5,0.5,3,64,2,638,1,2,1,234,noticers,0.5
3,-0.5,0.5,3,65,2,572,1,2,1,234,noticers,0.5
3,-0.5,0.5,3,66,2,573,2,1,1,234,noticers,0.5
3,-0.5,0.5,3,67,2,525,1,2,1,234,noticers,0.5
3,-0.5,0.5,3,68,2,576,2,1,1,234,noticers,0.5
3,-0.5,0.5,3,69,2,1281,2,1,1,234,noticers,0.5
3,-0.5,0.5,3,70,2,645,1,2,1,234,noticers,0.5
3,-0.5,0.5,3,71,2,723,2,1,1,234,noticers,0.5
3,-0.5,0.5,3,72,2,381,1,2,1,234,noticers,0.5
3,-0.5,0.5,3,73,2,486,2,1,1,234,noticers,0.5
3,-0.5,0.5,3,74,2,762,2,1,1,234,noticers,0.5
3,-0.5,0.5,3,75,2,531,1,2,1,234,noticers,0.5
3,-0.5,0.5,3,76,2,518,2,1,1,234,noticers,0.5
3,-0.5,0.5,3,77,2,537,1,2,1,234,noticers,0.5
3,-0.5,0.5,3,78,2,554,1,2,1,234,noticers,0.5
3,-0.5,0.5,3,79,2,443,2,1,1,234,noticers,0.5
3,-0.5,0.5,3,80,2,673,1,2,1,234,noticers,0.5
3,-0.5,0.5,3,81,3,647,1,2,1,234,noticers,0.5
3,-0.5,0.5,3,82,3,485,2,1,1,234,noticers,0.5
3,-0.5,0.5,3,83,3,697,2,1,1,234,noticers,0.5
3,-0.5,0.5,3,84,3,484,2,1,1,234,noticers,0.5
3,-0.5,0.5,3,85,3,1016,2,1,1,234,noticers,0.5
3,-0.5,0.5,3,86,3,567,1,2,1,234,noticers,0.5
3,-0.5,0.5,3,87,3,568,1,2,1,234,noticers,0.5
3,-0.5,0.5,3,88,3,425,1,2,1,234,noticers,0.5
3,-0.5,0.5,3,89,3,735,1,2,1,234,noticers,0.5
3,-0.5,0.5,3,90,3,537,1,2,1,234,noticers,0.5
3,-0.5,0.5,3,91,3,491,1,2,1,234,noticers,0.5
3,-0.5,0.5,3,92,3,622,1,2,1,234,noticers,0.5
3,-0.5,0.5,3,93,3,605,2,1,1,234,noticers,0.5
3,-0.5,0.5,3,94,3,524,2,1,1,234,noticers,0.5
3,-0.5,0.5,3,95,3,607,1,2,1,234,noticers,0.5
3,-0.5,0.5,3,96,3,478,1,2,1,234,noticers,0.5
3,-0.5,0.5,3,97,3,435,1,2,1,234,noticers,0.5
3,-0.5,0.5,3,98,3,601,2,1,1,234,noticers,0.5
3,-0.5,0.5,3,99,3,871,2,1,1,234,noticers,0.5
3,-0.5,0.5,3,100,3,972,2,1,1,234,noticers,0.5
3,-0.5,0.5,3,101,3,525,2,1,1,234,noticers,0.5
3,-0.5,0.5,3,102,3,447,2,1,1,234,noticers,0.5
3,-0.5,0.5,3,103,3,373,1,2,1,234,noticers,0.5
3,-0.5,0.5,3,104,3,382,1,2,1,234,noticers,0.5
3,-0.5,0.5,3,105,3,439,2,1,1,234,noticers,0.5
3,-0.5,0.5,3,106,3,540,2,1,1,234,noticers,0.5
3,-0.5,0.5,3,107,3,782,2,1,1,234,noticers,0.5
3,-0.5,0.5,3,108,3,566,2,1,1,234,noticers,0.5
3,-0.5,0.5,3,109,3,551,2,1,1,234,noticers,0.5
3,-0.5,0.5,3,110,3,1288,1,2,1,234,noticers,0.5
3,-0.5,0.5,3,111,3,1165,2,1,1,234,noticers,0.5
3,-0.5,0.5,3,112,3,501,2,1,1,234,noticers,0.5
3,-0.5,0.5,3,113,3,504,1,2,1,234,noticers,0.5
3,-0.5,0.5,3,114,3,556,2,1,1,234,noticers,0.5
3,-0.5,0.5,3,115,3,717,1,2,1,234,noticers,0.5
3,-0.5,0.5,3,116,3,744,1,2,1,234,noticers,0.5
3,-0.5,0.5,3,117,3,658,1,2,1,234,noticers,0.5
3,-0.5,0.5,3,118,3,735,2,1,1,234,noticers,0.5
3,-0.5,0.5,3,119,3,1176,1,2,1,234,noticers,0.5
3,-0.5,0.5,3,120,3,465,2,1,1,234,noticers,0.5
3,-0.5,0.5,3,121,4,664,1,2,1,234,noticers,0.5
3,-0.5,0.5,3,122,4,390,2,1,1,234,noticers,0.5
3,-0.5,0.5,3,123,4,462,2,1,1,234,noticers,0.5
3,-0.5,0.5,3,124,4,691,2,1,1,234,noticers,0.5
3,-0.5,0.5,3,125,4,527,1,2,1,234,noticers,0.5
3,-0.5,0.5,3,126,4,481,1,2,1,234,noticers,0.5
3,-0.5,0.5,3,127,4,581,1,2,1,234,noticers,0.5
3,-0.5,0.5,3,128,4,470,2,1,1,234,noticers,0.5
3,-0.5,0.5,3,129,4,715,1,2,1,234,noticers,0.5
3,-0.5,0.5,3,130,4,518,1,2,1,234,noticers,0.5
3,-0.5,0.5,3,131,4,585,2,1,1,234,noticers,0.5
3,-0.5,0.5,3,132,4,345,2,1,1,234,noticers,0.5
3,-0.5,0.5,3,133,4,690,2,1,1,234,noticers,0.5
3,-0.5,0.5,3,134,4,510,2,1,1,234,noticers,0.5
3,-0.5,0.5,3,135,4,481,2,2,0,234,noticers,0.5
3,-0.5,0.5,3,136,4,822,2,1,1,234,noticers,0.5
3,-0.5,0.5,3,137,4,508,1,2,1,234,noticers,0.5
3,-0.5,0.5,3,138,4,464,2,1,1,234,noticers,0.5
3,-0.5,0.5,3,139,4,725,2,1,1,234,noticers,0.5
3,-0.5,0.5,3,140,4,623,2,1,1,234,noticers,0.5
3,-0.5,0.5,3,141,4,493,1,2,1,234,noticers,0.5
3,-0.5,0.5,3,142,4,433,2,1,1,234,noticers,0.5
3,-0.5,0.5,3,143,4,887,1,2,1,234,noticers,0.5
3,-0.5,0.5,3,144,4,843,2,1,1,234,noticers,0.5
3,-0.5,0.5,3,145,4,594,1,2,1,234,noticers,0.5
3,-0.5,0.5,3,146,4,514,1,2,1,234,noticers,0.5
3,-0.5,0.5,3,147,4,516,2,1,1,234,noticers,0.5
3,-0.5,0.5,3,148,4,519,2,1,1,234,noticers,0.5
3,-0.5,0.5,3,149,4,473,1,2,1,234,noticers,0.5
3,-0.5,0.5,3,150,4,478,2,1,1,234,noticers,0.5
3,-0.5,0.5,3,151,4,643,2,1,1,234,noticers,0.5
3,-0.5,0.5,3,152,4,497,1,2,1,234,noticers,0.5
3,-0.5,0.5,3,153,4,485,2,1,1,234,noticers,0.5
3,-0.5,0.5,3,154,4,488,2,1,1,234,noticers,0.5
3,-0.5,0.5,3,155,4,588,1,2,1,234,noticers,0.5
3,-0.5,0.5,3,156,4,620,2,1,1,234,noticers,0.5
3,-0.5,0.5,3,157,4,570,1,2,1,234,noticers,0.5
3,-0.5,0.5,3,158,4,427,1,1,0,234,noticers,0.5
3,-0.5,0.5,3,159,4,498,2,1,1,234,noticers,0.5
3,-0.5,0.5,3,160,4,534,2,1,1,234,noticers,0.5
3,-0.5,0.5,3,161,5,1928,1,2,1,234,noticers,0.5
3,-0.5,0.5,3,162,5,563,2,1,1,234,noticers,0.5
3,-0.5,0.5,3,163,5,676,1,2,1,234,noticers,0.5
3,-0.5,0.5,3,164,5,545,1,2,1,234,noticers,0.5
3,-0.5,0.5,3,165,5,499,2,1,1,234,noticers,0.5
3,-0.5,0.5,3,166,5,679,1,2,1,234,noticers,0.5
3,-0.5,0.5,3,167,5,546,1,2,1,234,noticers,0.5
3,-0.5,0.5,3,168,5,484,1,2,1,234,noticers,0.5
3,-0.5,0.5,3,169,5,456,1,2,1,234,noticers,0.5
3,-0.5,0.5,3,170,5,606,2,1,1,234,noticers,0.5
3,-0.5,0.5,3,171,5,781,2,1,1,234,noticers,0.5
3,-0.5,0.5,3,172,5,646,1,2,1,234,noticers,0.5
3,-0.5,0.5,3,173,5,1028,1,2,1,234,noticers,0.5
3,-0.5,0.5,3,174,5,818,2,1,1,234,noticers,0.5
3,-0.5,0.5,3,175,5,1016,1,2,1,234,noticers,0.5
3,-0.5,0.5,3,176,5,455,2,1,1,234,noticers,0.5
3,-0.5,0.5,3,177,5,508,1,2,1,234,noticers,0.5
3,-0.5,0.5,3,178,5,480,2,1,1,234,noticers,0.5
3,-0.5,0.5,3,179,5,484,1,2,1,234,noticers,0.5
3,-0.5,0.5,3,180,5,440,2,1,1,234,noticers,0.5
3,-0.5,0.5,3,181,5,509,2,1,1,234,noticers,0.5
3,-0.5,0.5,3,182,5,609,2,1,1,234,noticers,0.5
3,-0.5,0.5,3,183,5,528,1,2,1,234,noticers,0.5
3,-0.5,0.5,3,184,5,1299,1,2,1,234,noticers,0.5
3,-0.5,0.5,3,185,5,646,1,2,1,234,noticers,0.5
3,-0.5,0.5,3,186,5,596,2,1,1,234,noticers,0.5
3,-0.5,0.5,3,187,5,644,2,1,1,234,noticers,0.5
3,-0.5,0.5,3,188,5,449,1,2,1,234,noticers,0.5
3,-0.5,0.5,3,189,5,663,1,2,1,234,noticers,0.5
3,-0.5,0.5,3,190,5,532,2,1,1,234,noticers,0.5
3,-0.5,0.5,3,191,5,455,2,1,1,234,noticers,0.5
3,-0.5,0.5,3,192,5,476,2,1,1,234,noticers,0.5
3,-0.5,0.5,3,193,5,625,2,1,1,234,noticers,0.5
3,-0.5,0.5,3,194,5,623,2,1,1,234,noticers,0.5
3,-0.5,0.5,3,195,5,685,2,1,1,234,noticers,0.5
3,-0.5,0.5,3,196,5,601,1,2,1,234,noticers,0.5
3,-0.5,0.5,3,197,5,536,2,1,1,234,noticers,0.5
3,-0.5,0.5,3,198,5,666,1,2,1,234,noticers,0.5
3,-0.5,0.5,3,199,5,503,1,2,1,234,noticers,0.5
3,-0.5,0.5,3,200,5,490,1,2,1,234,noticers,0.5
3,-0.5,0.5,3,201,6,518,2,1,1,234,noticers,0.5
3,-0.5,0.5,3,202,6,456,2,1,1,234,noticers,0.5
3,-0.5,0.5,3,203,6,461,2,1,1,234,noticers,0.5
3,-0.5,0.5,3,204,6,418,2,1,1,234,noticers,0.5
3,-0.5,0.5,3,205,6,441,1,2,1,234,noticers,0.5
3,-0.5,0.5,3,206,6,399,1,2,1,234,noticers,0.5
3,-0.5,0.5,3,207,6,406,2,1,1,234,noticers,0.5
3,-0.5,0.5,3,208,6,494,1,2,1,234,noticers,0.5
3,-0.5,0.5,3,209,6,561,2,1,1,234,noticers,0.5
3,-0.5,0.5,3,210,6,514,2,1,1,234,noticers,0.5
3,-0.5,0.5,3,211,6,581,1,2,1,234,noticers,0.5
3,-0.5,0.5,3,212,6,550,2,1,1,234,noticers,0.5
3,-0.5,0.5,3,213,6,1191,1,2,1,234,noticers,0.5
3,-0.5,0.5,3,214,6,464,2,1,1,234,noticers,0.5
3,-0.5,0.5,3,215,6,549,1,2,1,234,noticers,0.5
3,-0.5,0.5,3,216,6,710,1,2,1,234,noticers,0.5
3,-0.5,0.5,3,217,6,1793,2,1,1,234,noticers,0.5
3,-0.5,0.5,3,218,6,738,1,2,1,234,noticers,0.5
3,-0.5,0.5,3,219,6,524,2,1,1,234,noticers,0.5
3,-0.5,0.5,3,220,6,542,1,2,1,234,noticers,0.5
3,-0.5,0.5,3,221,6,864,2,1,1,234,noticers,0.5
3,-0.5,0.5,3,222,6,534,1,2,1,234,noticers,0.5
3,-0.5,0.5,3,223,6,535,2,1,1,234,noticers,0.5
3,-0.5,0.5,3,224,6,2025,2,1,1,234,noticers,0.5
3,-0.5,0.5,3,225,6,576,2,1,1,234,noticers,0.5
3,-0.5,0.5,3,226,6,640,2,1,1,234,noticers,0.5
3,-0.5,0.5,3,227,6,846,1,2,1,234,noticers,0.5
3,-0.5,0.5,3,228,6,612,1,2,1,234,noticers,0.5
3,-0.5,0.5,3,229,6,627,2,1,1,234,noticers,0.5
3,-0.5,0.5,3,230,6,1105,2,1,1,234,noticers,0.5
3,-0.5,0.5,3,231,6,477,2,1,1,234,noticers,0.5
3,-0.5,0.5,3,232,6,546,2,1,1,234,noticers,0.5
3,-0.5,0.5,3,233,6,436,1,2,1,234,noticers,0.5
3,-0.5,0.5,3,234,6,458,2,1,1,234,noticers,0.5
3,-0.5,0.5,3,235,6,479,2,1,1,234,noticers,0.5
3,-0.5,0.5,3,236,6,595,1,2,1,234,noticers,0.5
3,-0.5,0.5,3,237,6,563,1,2,1,234,noticers,0.5
3,-0.5,0.5,3,238,6,404,2,1,1,234,noticers,0.5
3,-0.5,0.5,3,239,6,603,2,1,1,234,noticers,0.5
3,-0.5,0.5,3,240,6,507,1,2,1,234,noticers,0.5
4,-0.5,-0.5,4,1,1,1908,1,1,0,236,non-noticers,-0.5
4,-0.5,-0.5,4,2,1,863,2,1,1,236,non-noticers,-0.5
4,-0.5,-0.5,4,3,1,2085,2,1,1,236,non-noticers,-0.5
4,-0.5,-0.5,4,4,1,1641,2,2,0,236,non-noticers,-0.5
4,-0.5,-0.5,4,5,1,1695,1,2,1,236,non-noticers,-0.5
4,-0.5,-0.5,4,6,1,1139,2,1,1,236,non-noticers,-0.5
4,-0.5,-0.5,4,7,1,1037,2,1,1,236,non-noticers,-0.5
4,-0.5,-0.5,4,8,1,619,1,2,1,236,non-noticers,-0.5
4,-0.5,-0.5,4,9,1,1641,1,1,0,236,non-noticers,-0.5
4,-0.5,-0.5,4,10,1,944,1,2,1,236,non-noticers,-0.5
4,-0.5,-0.5,4,11,1,802,2,1,1,236,non-noticers,-0.5
4,-0.5,-0.5,4,12,1,569,1,2,1,236,non-noticers,-0.5
4,-0.5,-0.5,4,13,1,682,1,2,1,236,non-noticers,-0.5
4,-0.5,-0.5,4,14,1,630,1,2,1,236,non-noticers,-0.5
4,-0.5,-0.5,4,15,1,772,1,2,1,236,non-noticers,-0.5
4,-0.5,-0.5,4,16,1,541,1,2,1,236,non-noticers,-0.5
4,-0.5,-0.5,4,17,1,655,2,1,1,236,non-noticers,-0.5
4,-0.5,-0.5,4,18,1,476,2,1,1,236,non-noticers,-0.5
4,-0.5,-0.5,4,19,1,561,1,2,1,236,non-noticers,-0.5
4,-0.5,-0.5,4,20,1,818,1,2,1,236,non-noticers,-0.5
4,-0.5,-0.5,4,21,1,1032,1,2,1,236,non-noticers,-0.5
4,-0.5,-0.5,4,22,1,726,2,2,0,236,non-noticers,-0.5
4,-0.5,-0.5,4,23,1,689,2,1,1,236,non-noticers,-0.5
4,-0.5,-0.5,4,24,1,605,2,1,1,236,non-noticers,-0.5
4,-0.5,-0.5,4,25,1,2284,2,1,1,236,non-noticers,-0.5
4,-0.5,-0.5,4,26,1,697,2,1,1,236,non-noticers,-0.5
4,-0.5,-0.5,4,27,1,788,1,2,1,236,non-noticers,-0.5
4,-0.5,-0.5,4,28,1,1948,1,2,1,236,non-noticers,-0.5
4,-0.5,-0.5,4,29,1,566,2,1,1,236,non-noticers,-0.5
4,-0.5,-0.5,4,30,1,583,1,2,1,236,non-noticers,-0.5
4,-0.5,-0.5,4,31,1,1127,1,2,1,236,non-noticers,-0.5
4,-0.5,-0.5,4,32,1,914,2,1,1,236,non-noticers,-0.5
4,-0.5,-0.5,4,33,1,1108,1,2,1,236,non-noticers,-0.5
4,-0.5,-0.5,4,34,1,1455,1,2,1,236,non-noticers,-0.5
4,-0.5,-0.5,4,35,1,797,2,1,1,236,non-noticers,-0.5
4,-0.5,-0.5,4,36,1,677,2,1,1,236,non-noticers,-0.5
4,-0.5,-0.5,4,37,1,626,1,2,1,236,non-noticers,-0.5
4,-0.5,-0.5,4,38,1,608,1,2,1,236,non-noticers,-0.5
4,-0.5,-0.5,4,39,1,560,1,2,1,236,non-noticers,-0.5
4,-0.5,-0.5,4,40,1,496,2,1,1,236,non-noticers,-0.5
4,-0.5,-0.5,4,41,2,1227,2,1,1,236,non-noticers,-0.5
4,-0.5,-0.5,4,42,2,642,2,1,1,236,non-noticers,-0.5
4,-0.5,-0.5,4,43,2,512,1,2,1,236,non-noticers,-0.5
4,-0.5,-0.5,4,44,2,643,1,2,1,236,non-noticers,-0.5
4,-0.5,-0.5,4,45,2,561,1,2,1,236,non-noticers,-0.5
4,-0.5,-0.5,4,46,2,673,2,1,1,236,non-noticers,-0.5
4,-0.5,-0.5,4,47,2,1086,1,2,1,236,non-noticers,-0.5
4,-0.5,-0.5,4,48,2,1226,1,2,1,236,non-noticers,-0.5
4,-0.5,-0.5,4,49,2,545,2,1,1,236,non-noticers,-0.5
4,-0.5,-0.5,4,50,2,531,1,2,1,236,non-noticers,-0.5
4,-0.5,-0.5,4,51,2,694,2,1,1,236,non-noticers,-0.5
4,-0.5,-0.5,4,52,2,690,1,2,1,236,non-noticers,-0.5
4,-0.5,-0.5,4,53,2,621,1,2,1,236,non-noticers,-0.5
4,-0.5,-0.5,4,54,2,491,1,2,1,236,non-noticers,-0.5
4,-0.5,-0.5,4,55,2,591,2,1,1,236,non-noticers,-0.5
4,-0.5,-0.5,4,56,2,639,2,1,1,236,non-noticers,-0.5
4,-0.5,-0.5,4,57,2,573,2,1,1,236,non-noticers,-0.5
4,-0.5,-0.5,4,58,2,542,1,2,1,236,non-noticers,-0.5
4,-0.5,-0.5,4,59,2,720,2,1,1,236,non-noticers,-0.5
4,-0.5,-0.5,4,60,2,2074,1,2,1,236,non-noticers,-0.5
4,-0.5,-0.5,4,61,2,751,1,2,1,236,non-noticers,-0.5
4,-0.5,-0.5,4,62,2,488,1,2,1,236,non-noticers,-0.5
4,-0.5,-0.5,4,63,2,524,1,2,1,236,non-noticers,-0.5
4,-0.5,-0.5,4,64,2,543,2,1,1,236,non-noticers,-0.5
4,-0.5,-0.5,4,65,2,449,2,1,1,236,non-noticers,-0.5
4,-0.5,-0.5,4,66,2,534,1,2,1,236,non-noticers,-0.5
4,-0.5,-0.5,4,67,2,680,2,1,1,236,non-noticers,-0.5
4,-0.5,-0.5,4,68,2,581,1,2,1,236,non-noticers,-0.5
4,-0.5,-0.5,4,69,2,549,1,2,1,236,non-noticers,-0.5
4,-0.5,-0.5,4,70,2,615,2,1,1,236,non-noticers,-0.5
4,-0.5,-0.5,4,71,2,742,1,2,1,236,non-noticers,-0.5
4,-0.5,-0.5,4,72,2,592,2,1,1,236,non-noticers,-0.5
4,-0.5,-0.5,4,73,2,831,1,2,1,236,non-noticers,-0.5
4,-0.5,-0.5,4,74,2,534,1,2,1,236,non-noticers,-0.5
4,-0.5,-0.5,4,75,2,552,2,1,1,236,non-noticers,-0.5
4,-0.5,-0.5,4,76,2,649,1,2,1,236,non-noticers,-0.5
4,-0.5,-0.5,4,77,2,550,2,1,1,236,non-noticers,-0.5
4,-0.5,-0.5,4,78,2,856,2,1,1,236,non-noticers,-0.5
4,-0.5,-0.5,4,79,2,637,1,2,1,236,non-noticers,-0.5
4,-0.5,-0.5,4,80,2,650,2,1,1,236,non-noticers,-0.5
4,-0.5,-0.5,4,81,3,1148,1,2,1,236,non-noticers,-0.5
4,-0.5,-0.5,4,82,3,1142,1,2,1,236,non-noticers,-0.5
4,-0.5,-0.5,4,83,3,1008,2,1,1,236,non-noticers,-0.5
4,-0.5,-0.5,4,84,3,607,2,1,1,236,non-noticers,-0.5
4,-0.5,-0.5,4,85,3,911,1,2,1,236,non-noticers,-0.5
4,-0.5,-0.5,4,86,3,1025,2,1,1,236,non-noticers,-0.5
4,-0.5,-0.5,4,87,3,576,1,2,1,236,non-noticers,-0.5
4,-0.5,-0.5,4,88,3,577,2,1,1,236,non-noticers,-0.5
4,-0.5,-0.5,4,89,3,881,2,1,1,236,non-noticers,-0.5
4,-0.5,-0.5,4,90,3,582,2,1,1,236,non-noticers,-0.5
4,-0.5,-0.5,4,91,3,631,2,1,1,236,non-noticers,-0.5
4,-0.5,-0.5,4,92,3,645,1,2,1,236,non-noticers,-0.5
4,-0.5,-0.5,4,93,3,626,1,2,1,236,non-noticers,-0.5
4,-0.5,-0.5,4,94,3,769,2,1,1,236,non-noticers,-0.5
4,-0.5,-0.5,4,95,3,810,2,1,1,236,non-noticers,-0.5
4,-0.5,-0.5,4,96,3,689,2,1,1,236,non-noticers,-0.5
4,-0.5,-0.5,4,97,3,541,1,2,1,236,non-noticers,-0.5
4,-0.5,-0.5,4,98,3,1583,1,2,1,236,non-noticers,-0.5
4,-0.5,-0.5,4,99,3,422,2,1,1,236,non-noticers,-0.5
4,-0.5,-0.5,4,100,3,461,2,1,1,236,non-noticers,-0.5
4,-0.5,-0.5,4,101,3,754,2,1,1,236,non-noticers,-0.5
4,-0.5,-0.5,4,102,3,604,2,1,1,236,non-noticers,-0.5
4,-0.5,-0.5,4,103,3,843,1,2,1,236,non-noticers,-0.5
4,-0.5,-0.5,4,104,3,721,1,2,1,236,non-noticers,-0.5
4,-0.5,-0.5,4,105,3,620,1,2,1,236,non-noticers,-0.5
4,-0.5,-0.5,4,106,3,618,2,1,1,236,non-noticers,-0.5
4,-0.5,-0.5,4,107,3,872,2,1,1,236,non-noticers,-0.5
4,-0.5,-0.5,4,108,3,429,2,1,1,236,non-noticers,-0.5
4,-0.5,-0.5,4,109,3,644,1,2,1,236,non-noticers,-0.5
4,-0.5,-0.5,4,110,3,626,2,1,1,236,non-noticers,-0.5
4,-0.5,-0.5,4,111,3,832,1,2,1,236,non-noticers,-0.5
4,-0.5,-0.5,4,112,3,1206,1,2,1,236,non-noticers,-0.5
4,-0.5,-0.5,4,113,3,749,2,1,1,236,non-noticers,-0.5
4,-0.5,-0.5,4,114,3,534,1,2,1,236,non-noticers,-0.5
4,-0.5,-0.5,4,115,3,552,1,2,1,236,non-noticers,-0.5
4,-0.5,-0.5,4,116,3,490,2,1,1,236,non-noticers,-0.5
4,-0.5,-0.5,4,117,3,1710,2,1,1,236,non-noticers,-0.5
4,-0.5,-0.5,4,118,3,673,1,2,1,236,non-noticers,-0.5
4,-0.5,-0.5,4,119,3,718,1,2,1,236,non-noticers,-0.5
4,-0.5,-0.5,4,120,3,472,1,2,1,236,non-noticers,-0.5
4,-0.5,-0.5,4,121,4,1244,1,2,1,236,non-noticers,-0.5
4,-0.5,-0.5,4,122,4,722,2,1,1,236,non-noticers,-0.5
4,-0.5,-0.5,4,123,4,573,2,1,1,236,non-noticers,-0.5
4,-0.5,-0.5,4,124,4,718,1,2,1,236,non-noticers,-0.5
4,-0.5,-0.5,4,125,4,1336,2,1,1,236,non-noticers,-0.5
4,-0.5,-0.5,4,126,4,553,2,1,1,236,non-noticers,-0.5
4,-0.5,-0.5,4,127,4,635,2,1,1,236,non-noticers,-0.5
4,-0.5,-0.5,4,128,4,457,2,1,1,236,non-noticers,-0.5
4,-0.5,-0.5,4,129,4,622,2,1,1,236,non-noticers,-0.5
4,-0.5,-0.5,4,130,4,397,2,1,1,236,non-noticers,-0.5
4,-0.5,-0.5,4,131,4,485,1,2,1,236,non-noticers,-0.5
4,-0.5,-0.5,4,132,4,521,2,1,1,236,non-noticers,-0.5
4,-0.5,-0.5,4,133,4,458,2,1,1,236,non-noticers,-0.5
4,-0.5,-0.5,4,134,4,448,2,1,1,236,non-noticers,-0.5
4,-0.5,-0.5,4,135,4,486,1,2,1,236,non-noticers,-0.5
4,-0.5,-0.5,4,136,4,554,2,1,1,236,non-noticers,-0.5
4,-0.5,-0.5,4,137,4,587,2,1,1,236,non-noticers,-0.5
4,-0.5,-0.5,4,138,4,411,2,1,1,236,non-noticers,-0.5
4,-0.5,-0.5,4,139,4,546,2,1,1,236,non-noticers,-0.5
4,-0.5,-0.5,4,140,4,532,1,2,1,236,non-noticers,-0.5
4,-0.5,-0.5,4,141,4,438,2,1,1,236,non-noticers,-0.5
4,-0.5,-0.5,4,142,4,476,2,1,1,236,non-noticers,-0.5
4,-0.5,-0.5,4,143,4,1969,1,2,1,236,non-noticers,-0.5
4,-0.5,-0.5,4,144,4,986,2,1,1,236,non-noticers,-0.5
4,-0.5,-0.5,4,145,4,506,1,2,1,236,non-noticers,-0.5
4,-0.5,-0.5,4,146,4,893,1,2,1,236,non-noticers,-0.5
4,-0.5,-0.5,4,147,4,464,2,1,1,236,non-noticers,-0.5
4,-0.5,-0.5,4,148,4,790,1,2,1,236,non-noticers,-0.5
4,-0.5,-0.5,4,149,4,958,2,1,1,236,non-noticers,-0.5
4,-0.5,-0.5,4,150,4,3391,1,2,1,236,non-noticers,-0.5
4,-0.5,-0.5,4,151,4,3440,1,2,1,236,non-noticers,-0.5
4,-0.5,-0.5,4,152,4,1773,2,1,1,236,non-noticers,-0.5
4,-0.5,-0.5,4,153,4,718,1,2,1,236,non-noticers,-0.5
4,-0.5,-0.5,4,154,4,953,1,2,1,236,non-noticers,-0.5
4,-0.5,-0.5,4,155,4,714,1,2,1,236,non-noticers,-0.5
4,-0.5,-0.5,4,156,4,518,1,2,1,236,non-noticers,-0.5
4,-0.5,-0.5,4,157,4,488,2,1,1,236,non-noticers,-0.5
4,-0.5,-0.5,4,158,4,476,1,2,1,236,non-noticers,-0.5
4,-0.5,-0.5,4,159,4,512,1,2,1,236,non-noticers,-0.5
4,-0.5,-0.5,4,160,4,579,2,1,1,236,non-noticers,-0.5
4,-0.5,-0.5,4,161,5,1189,2,1,1,236,non-noticers,-0.5
4,-0.5,-0.5,4,162,5,861,2,1,1,236,non-noticers,-0.5
4,-0.5,-0.5,4,163,5,579,2,1,1,236,non-noticers,-0.5
4,-0.5,-0.5,4,164,5,531,1,2,1,236,non-noticers,-0.5
4,-0.5,-0.5,4,165,5,997,1,2,1,236,non-noticers,-0.5
4,-0.5,-0.5,4,166,5,517,1,2,1,236,non-noticers,-0.5
4,-0.5,-0.5,4,167,5,424,2,1,1,236,non-noticers,-0.5
4,-0.5,-0.5,4,168,5,558,1,2,1,236,non-noticers,-0.5
4,-0.5,-0.5,4,169,5,592,1,2,1,236,non-noticers,-0.5
4,-0.5,-0.5,4,170,5,656,1,2,1,236,non-noticers,-0.5
4,-0.5,-0.5,4,171,5,1037,1,2,1,236,non-noticers,-0.5
4,-0.5,-0.5,4,172,5,554,2,1,1,236,non-noticers,-0.5
4,-0.5,-0.5,4,173,5,812,1,2,1,236,non-noticers,-0.5
4,-0.5,-0.5,4,174,5,547,2,1,1,236,non-noticers,-0.5
4,-0.5,-0.5,4,175,5,581,2,1,1,236,non-noticers,-0.5
4,-0.5,-0.5,4,176,5,630,1,2,1,236,non-noticers,-0.5
4,-0.5,-0.5,4,177,5,676,2,1,1,236,non-noticers,-0.5
4,-0.5,-0.5,4,178,5,609,1,2,1,236,non-noticers,-0.5
4,-0.5,-0.5,4,179,5,495,2,1,1,236,non-noticers,-0.5
4,-0.5,-0.5,4,180,5,723,2,1,1,236,non-noticers,-0.5
4,-0.5,-0.5,4,181,5,862,1,2,1,236,non-noticers,-0.5
4,-0.5,-0.5,4,182,5,499,2,1,1,236,non-noticers,-0.5
4,-0.5,-0.5,4,183,5,807,1,2,1,236,non-noticers,-0.5
4,-0.5,-0.5,4,184,5,990,2,1,1,236,non-noticers,-0.5
4,-0.5,-0.5,4,185,5,1022,1,2,1,236,non-noticers,-0.5
4,-0.5,-0.5,4,186,5,476,2,1,1,236,non-noticers,-0.5
4,-0.5,-0.5,4,187,5,689,1,2,1,236,non-noticers,-0.5
4,-0.5,-0.5,4,188,5,733,1,2,1,236,non-noticers,-0.5
4,-0.5,-0.5,4,189,5,583,1,2,1,236,non-noticers,-0.5
4,-0.5,-0.5,4,190,5,615,2,1,1,236,non-noticers,-0.5
4,-0.5,-0.5,4,191,5,566,2,1,1,236,non-noticers,-0.5
4,-0.5,-0.5,4,192,5,967,2,1,1,236,non-noticers,-0.5
4,-0.5,-0.5,4,193,5,503,2,1,1,236,non-noticers,-0.5
4,-0.5,-0.5,4,194,5,618,1,2,1,236,non-noticers,-0.5
4,-0.5,-0.5,4,195,5,617,2,1,1,236,non-noticers,-0.5
4,-0.5,-0.5,4,196,5,743,1,2,1,236,non-noticers,-0.5
4,-0.5,-0.5,4,197,5,1073,1,2,1,236,non-noticers,-0.5
4,-0.5,-0.5,4,198,5,606,2,1,1,236,non-noticers,-0.5
4,-0.5,-0.5,4,199,5,718,1,2,1,236,non-noticers,-0.5
4,-0.5,-0.5,4,200,5,551,1,2,1,236,non-noticers,-0.5
4,-0.5,-0.5,4,201,6,903,2,1,1,236,non-noticers,-0.5
4,-0.5,-0.5,4,202,6,1098,2,1,1,236,non-noticers,-0.5
4,-0.5,-0.5,4,203,6,598,1,2,1,236,non-noticers,-0.5
4,-0.5,-0.5,4,204,6,2390,1,2,1,236,non-noticers,-0.5
4,-0.5,-0.5,4,205,6,895,1,2,1,236,non-noticers,-0.5
4,-0.5,-0.5,4,206,6,578,1,2,1,236,non-noticers,-0.5
4,-0.5,-0.5,4,207,6,467,1,2,1,236,non-noticers,-0.5
4,-0.5,-0.5,4,208,6,503,2,1,1,236,non-noticers,-0.5
4,-0.5,-0.5,4,209,6,507,2,1,1,236,non-noticers,-0.5
4,-0.5,-0.5,4,210,6,670,2,1,1,236,non-noticers,-0.5
4,-0.5,-0.5,4,211,6,491,2,1,1,236,non-noticers,-0.5
4,-0.5,-0.5,4,212,6,463,2,1,1,236,non-noticers,-0.5
4,-0.5,-0.5,4,213,6,1763,1,2,1,236,non-noticers,-0.5
4,-0.5,-0.5,4,214,6,564,2,1,1,236,non-noticers,-0.5
4,-0.5,-0.5,4,215,6,550,1,2,1,236,non-noticers,-0.5
4,-0.5,-0.5,4,216,6,711,1,2,1,236,non-noticers,-0.5
4,-0.5,-0.5,4,217,6,643,1,2,1,236,non-noticers,-0.5
4,-0.5,-0.5,4,218,6,497,2,1,1,236,non-noticers,-0.5
4,-0.5,-0.5,4,219,6,645,1,2,1,236,non-noticers,-0.5
4,-0.5,-0.5,4,220,6,1106,1,2,1,236,non-noticers,-0.5
4,-0.5,-0.5,4,221,6,557,2,1,1,236,non-noticers,-0.5
4,-0.5,-0.5,4,222,6,446,2,1,1,236,non-noticers,-0.5
4,-0.5,-0.5,4,223,6,1108,2,1,1,236,non-noticers,-0.5
4,-0.5,-0.5,4,224,6,1008,1,2,1,236,non-noticers,-0.5
4,-0.5,-0.5,4,225,6,735,1,2,1,236,non-noticers,-0.5
4,-0.5,-0.5,4,226,6,2168,2,1,1,236,non-noticers,-0.5
4,-0.5,-0.5,4,227,6,2105,2,1,1,236,non-noticers,-0.5
4,-0.5,-0.5,4,228,6,637,1,2,1,236,non-noticers,-0.5
4,-0.5,-0.5,4,229,6,571,2,1,1,236,non-noticers,-0.5
4,-0.5,-0.5,4,230,6,924,1,2,1,236,non-noticers,-0.5
4,-0.5,-0.5,4,231,6,638,2,1,1,236,non-noticers,-0.5
4,-0.5,-0.5,4,232,6,3596,2,1,1,236,non-noticers,-0.5
4,-0.5,-0.5,4,233,6,548,2,1,1,236,non-noticers,-0.5
4,-0.5,-0.5,4,234,6,550,2,1,1,236,non-noticers,-0.5
4,-0.5,-0.5,4,235,6,888,1,2,1,236,non-noticers,-0.5
4,-0.5,-0.5,4,236,6,3980,2,1,1,236,non-noticers,-0.5
4,-0.5,-0.5,4,237,6,564,2,1,1,236,non-noticers,-0.5
4,-0.5,-0.5,4,238,6,517,1,2,1,236,non-noticers,-0.5
4,-0.5,-0.5,4,239,6,648,1,2,1,236,non-noticers,-0.5
4,-0.5,-0.5,4,240,6,1190,1,2,1,236,non-noticers,-0.5
5,0.5,0.5,1,1,1,1273,1,1,1,232,non-noticers,-0.5
5,0.5,0.5,1,2,1,1085,2,2,1,232,non-noticers,-0.5
5,0.5,0.5,1,3,1,1081,2,1,0,232,non-noticers,-0.5
5,0.5,0.5,1,4,1,1718,2,1,0,232,non-noticers,-0.5
5,0.5,0.5,1,5,1,633,2,2,1,232,non-noticers,-0.5
5,0.5,0.5,1,6,1,519,1,2,0,232,non-noticers,-0.5
5,0.5,0.5,1,7,1,1226,2,1,0,232,non-noticers,-0.5
5,0.5,0.5,1,8,1,991,1,1,1,232,non-noticers,-0.5
5,0.5,0.5,1,9,1,1008,1,1,1,232,non-noticers,-0.5
5,0.5,0.5,1,10,1,575,2,2,1,232,non-noticers,-0.5
5,0.5,0.5,1,11,1,592,2,2,1,232,non-noticers,-0.5
5,0.5,0.5,1,12,1,560,1,1,1,232,non-noticers,-0.5
5,0.5,0.5,1,13,1,929,2,2,1,232,non-noticers,-0.5
5,0.5,0.5,1,14,1,564,2,2,1,232,non-noticers,-0.5
5,0.5,0.5,1,15,1,612,1,1,1,232,non-noticers,-0.5
5,0.5,0.5,1,16,1,467,2,2,1,232,non-noticers,-0.5
5,0.5,0.5,1,17,1,664,2,2,1,232,non-noticers,-0.5
5,0.5,0.5,1,18,1,725,1,1,1,232,non-noticers,-0.5
5,0.5,0.5,1,19,1,432,2,2,1,232,non-noticers,-0.5
5,0.5,0.5,1,20,1,423,1,1,1,232,non-noticers,-0.5
5,0.5,0.5,1,21,1,493,2,2,1,232,non-noticers,-0.5
5,0.5,0.5,1,22,1,608,1,1,1,232,non-noticers,-0.5
5,0.5,0.5,1,23,1,640,1,1,1,232,non-noticers,-0.5
5,0.5,0.5,1,24,1,414,2,2,1,232,non-noticers,-0.5
5,0.5,0.5,1,25,1,533,2,2,1,232,non-noticers,-0.5
5,0.5,0.5,1,26,1,695,2,2,1,232,non-noticers,-0.5
5,0.5,0.5,1,27,1,691,1,1,1,232,non-noticers,-0.5
5,0.5,0.5,1,28,1,559,1,1,1,232,non-noticers,-0.5
5,0.5,0.5,1,29,1,560,2,2,1,232,non-noticers,-0.5
5,0.5,0.5,1,30,1,785,2,2,1,232,non-noticers,-0.5
5,0.5,0.5,1,31,1,473,1,1,1,232,non-noticers,-0.5
5,0.5,0.5,1,32,1,606,1,1,1,232,non-noticers,-0.5
5,0.5,0.5,1,33,1,589,2,2,1,232,non-noticers,-0.5
5,0.5,0.5,1,34,1,525,1,1,1,232,non-noticers,-0.5
5,0.5,0.5,1,35,1,576,2,2,1,232,non-noticers,-0.5
5,0.5,0.5,1,36,1,592,1,1,1,232,non-noticers,-0.5
5,0.5,0.5,1,37,1,399,2,2,1,232,non-noticers,-0.5
5,0.5,0.5,1,38,1,471,2,2,1,232,non-noticers,-0.5
5,0.5,0.5,1,39,1,475,1,1,1,232,non-noticers,-0.5
5,0.5,0.5,1,40,1,416,1,2,0,232,non-noticers,-0.5
5,0.5,0.5,1,41,2,1214,1,1,1,232,non-noticers,-0.5
5,0.5,0.5,1,42,2,1316,2,2,1,232,non-noticers,-0.5
5,0.5,0.5,1,43,2,535,1,1,1,232,non-noticers,-0.5
5,0.5,0.5,1,44,2,681,1,1,1,232,non-noticers,-0.5
5,0.5,0.5,1,45,2,454,2,2,1,232,non-noticers,-0.5
5,0.5,0.5,1,46,2,411,2,2,1,232,non-noticers,-0.5
5,0.5,0.5,1,47,2,531,1,1,1,232,non-noticers,-0.5
5,0.5,0.5,1,48,2,437,2,2,1,232,non-noticers,-0.5
5,0.5,0.5,1,49,2,347,2,2,1,232,non-noticers,-0.5
5,0.5,0.5,1,50,2,468,2,2,1,232,non-noticers,-0.5
5,0.5,0.5,1,51,2,537,2,2,1,232,non-noticers,-0.5
5,0.5,0.5,1,52,2,555,1,1,1,232,non-noticers,-0.5
5,0.5,0.5,1,53,2,604,2,2,1,232,non-noticers,-0.5
5,0.5,0.5,1,54,2,524,1,1,1,232,non-noticers,-0.5
5,0.5,0.5,1,55,2,510,1,1,1,232,non-noticers,-0.5
5,0.5,0.5,1,56,2,626,1,1,1,232,non-noticers,-0.5
5,0.5,0.5,1,57,2,767,2,2,1,232,non-noticers,-0.5
5,0.5,0.5,1,58,2,600,2,2,1,232,non-noticers,-0.5
5,0.5,0.5,1,59,2,519,1,1,1,232,non-noticers,-0.5
5,0.5,0.5,1,60,2,778,1,1,1,232,non-noticers,-0.5
5,0.5,0.5,1,61,2,611,1,1,1,232,non-noticers,-0.5
5,0.5,0.5,1,62,2,738,1,1,1,232,non-noticers,-0.5
5,0.5,0.5,1,63,2,1180,1,1,1,232,non-noticers,-0.5
5,0.5,0.5,1,64,2,676,2,2,1,232,non-noticers,-0.5
5,0.5,0.5,1,65,2,721,1,1,1,232,non-noticers,-0.5
5,0.5,0.5,1,66,2,715,2,2,1,232,non-noticers,-0.5
5,0.5,0.5,1,67,2,502,2,2,1,232,non-noticers,-0.5
5,0.5,0.5,1,68,2,537,2,2,1,232,non-noticers,-0.5
5,0.5,0.5,1,69,2,539,2,2,1,232,non-noticers,-0.5
5,0.5,0.5,1,70,2,525,2,2,1,232,non-noticers,-0.5
5,0.5,0.5,1,71,2,687,1,1,1,232,non-noticers,-0.5
5,0.5,0.5,1,72,2,475,2,2,1,232,non-noticers,-0.5
5,0.5,0.5,1,73,2,544,1,1,1,232,non-noticers,-0.5
5,0.5,0.5,1,74,2,642,1,1,1,232,non-noticers,-0.5
5,0.5,0.5,1,75,2,800,1,1,1,232,non-noticers,-0.5
5,0.5,0.5,1,76,2,647,1,1,1,232,non-noticers,-0.5
5,0.5,0.5,1,77,2,565,1,1,1,232,non-noticers,-0.5
5,0.5,0.5,1,78,2,598,2,2,1,232,non-noticers,-0.5
5,0.5,0.5,1,79,2,646,2,2,1,232,non-noticers,-0.5
5,0.5,0.5,1,80,2,564,1,1,1,232,non-noticers,-0.5
5,0.5,0.5,1,81,3,545,1,1,1,232,non-noticers,-0.5
5,0.5,0.5,1,82,3,595,2,2,1,232,non-noticers,-0.5
5,0.5,0.5,1,83,3,483,1,1,1,232,non-noticers,-0.5
5,0.5,0.5,1,84,3,519,2,2,1,232,non-noticers,-0.5
5,0.5,0.5,1,85,3,633,1,1,1,232,non-noticers,-0.5
5,0.5,0.5,1,86,3,503,2,2,1,232,non-noticers,-0.5
5,0.5,0.5,1,87,3,570,1,1,1,232,non-noticers,-0.5
5,0.5,0.5,1,88,3,587,2,2,1,232,non-noticers,-0.5
5,0.5,0.5,1,89,3,699,2,2,1,232,non-noticers,-0.5
5,0.5,0.5,1,90,3,615,2,2,1,232,non-noticers,-0.5
5,0.5,0.5,1,91,3,565,1,1,1,232,non-noticers,-0.5
5,0.5,0.5,1,92,3,486,2,2,1,232,non-noticers,-0.5
5,0.5,0.5,1,93,3,522,2,2,1,232,non-noticers,-0.5
5,0.5,0.5,1,94,3,541,1,1,1,232,non-noticers,-0.5
5,0.5,0.5,1,95,3,575,1,1,1,232,non-noticers,-0.5
5,0.5,0.5,1,96,3,752,1,1,1,232,non-noticers,-0.5
5,0.5,0.5,1,97,3,585,1,1,1,232,non-noticers,-0.5
5,0.5,0.5,1,98,3,504,2,2,1,232,non-noticers,-0.5
5,0.5,0.5,1,99,3,507,2,2,1,232,non-noticers,-0.5
5,0.5,0.5,1,100,3,527,2,2,1,232,non-noticers,-0.5
5,0.5,0.5,1,101,3,545,1,2,0,232,non-noticers,-0.5
5,0.5,0.5,1,102,3,547,2,2,1,232,non-noticers,-0.5
5,0.5,0.5,1,103,3,517,1,1,1,232,non-noticers,-0.5
5,0.5,0.5,1,104,3,520,2,2,1,232,non-noticers,-0.5
5,0.5,0.5,1,105,3,651,2,2,1,232,non-noticers,-0.5
5,0.5,0.5,1,106,3,599,1,1,1,232,non-noticers,-0.5
5,0.5,0.5,1,107,3,486,1,1,1,232,non-noticers,-0.5
5,0.5,0.5,1,108,3,490,2,2,1,232,non-noticers,-0.5
5,0.5,0.5,1,109,3,510,2,2,1,232,non-noticers,-0.5
5,0.5,0.5,1,110,3,578,2,2,1,232,non-noticers,-0.5
5,0.5,0.5,1,111,3,482,1,1,1,232,non-noticers,-0.5
5,0.5,0.5,1,112,3,503,2,2,1,232,non-noticers,-0.5
5,0.5,0.5,1,113,3,985,2,2,1,232,non-noticers,-0.5
5,0.5,0.5,1,114,3,538,1,1,1,232,non-noticers,-0.5
5,0.5,0.5,1,115,3,460,2,2,1,232,non-noticers,-0.5
5,0.5,0.5,1,116,3,625,1,1,1,232,non-noticers,-0.5
5,0.5,0.5,1,117,3,704,2,2,1,232,non-noticers,-0.5
5,0.5,0.5,1,118,3,715,1,1,1,232,non-noticers,-0.5
5,0.5,0.5,1,119,3,822,1,1,1,232,non-noticers,-0.5
5,0.5,0.5,1,120,3,588,2,2,1,232,non-noticers,-0.5
5,0.5,0.5,1,121,4,892,1,1,1,232,non-noticers,-0.5
5,0.5,0.5,1,122,4,528,1,1,1,232,non-noticers,-0.5
5,0.5,0.5,1,123,4,579,1,1,1,232,non-noticers,-0.5
5,0.5,0.5,1,124,4,515,2,2,1,232,non-noticers,-0.5
5,0.5,0.5,1,125,4,855,2,2,1,232,non-noticers,-0.5
5,0.5,0.5,1,126,4,411,2,2,1,232,non-noticers,-0.5
5,0.5,0.5,1,127,4,466,1,1,1,232,non-noticers,-0.5
5,0.5,0.5,1,128,4,583,2,2,1,232,non-noticers,-0.5
5,0.5,0.5,1,129,4,711,1,1,1,232,non-noticers,-0.5
5,0.5,0.5,1,130,4,546,2,2,1,232,non-noticers,-0.5
5,0.5,0.5,1,131,4,532,1,1,1,232,non-noticers,-0.5
5,0.5,0.5,1,132,4,582,2,2,1,232,non-noticers,-0.5
5,0.5,0.5,1,133,4,470,2,2,1,232,non-noticers,-0.5
5,0.5,0.5,1,134,4,555,1,1,1,232,non-noticers,-0.5
5,0.5,0.5,1,135,4,668,1,1,1,232,non-noticers,-0.5
5,0.5,0.5,1,136,4,537,2,2,1,232,non-noticers,-0.5
5,0.5,0.5,1,137,4,587,1,1,1,232,non-noticers,-0.5
5,0.5,0.5,1,138,4,619,2,2,1,232,non-noticers,-0.5
5,0.5,0.5,1,139,4,570,1,1,1,232,non-noticers,-0.5
5,0.5,0.5,1,140,4,490,1,1,1,232,non-noticers,-0.5
5,0.5,0.5,1,141,4,461,2,2,1,232,non-noticers,-0.5
5,0.5,0.5,1,142,4,482,2,2,1,232,non-noticers,-0.5
5,0.5,0.5,1,143,4,902,1,1,1,232,non-noticers,-0.5
5,0.5,0.5,1,144,4,554,2,2,1,232,non-noticers,-0.5
5,0.5,0.5,1,145,4,1003,1,1,1,232,non-noticers,-0.5
5,0.5,0.5,1,146,4,667,1,1,1,232,non-noticers,-0.5
5,0.5,0.5,1,147,4,630,2,2,1,232,non-noticers,-0.5
5,0.5,0.5,1,148,4,629,2,2,1,232,non-noticers,-0.5
5,0.5,0.5,1,149,4,612,2,2,1,232,non-noticers,-0.5
5,0.5,0.5,1,150,4,579,2,2,1,232,non-noticers,-0.5
5,0.5,0.5,1,151,4,564,1,1,1,232,non-noticers,-0.5
5,0.5,0.5,1,152,4,597,1,1,1,232,non-noticers,-0.5
5,0.5,0.5,1,153,4,485,1,2,0,232,non-noticers,-0.5
5,0.5,0.5,1,154,4,569,2,2,1,232,non-noticers,-0.5
5,0.5,0.5,1,155,4,569,2,2,1,232,non-noticers,-0.5
5,0.5,0.5,1,156,4,634,2,2,1,232,non-noticers,-0.5
5,0.5,0.5,1,157,4,632,1,1,1,232,non-noticers,-0.5
5,0.5,0.5,1,158,4,710,1,1,1,232,non-noticers,-0.5
5,0.5,0.5,1,159,4,578,2,2,1,232,non-noticers,-0.5
5,0.5,0.5,1,160,4,530,1,1,1,232,non-noticers,-0.5
5,0.5,0.5,1,161,5,554,2,2,1,232,non-noticers,-0.5
5,0.5,0.5,1,162,5,587,2,2,1,232,non-noticers,-0.5
5,0.5,0.5,1,163,5,603,2,2,1,232,non-noticers,-0.5
5,0.5,0.5,1,164,5,858,1,1,1,232,non-noticers,-0.5
5,0.5,0.5,1,165,5,400,2,2,1,232,non-noticers,-0.5
5,0.5,0.5,1,166,5,503,1,1,1,232,non-noticers,-0.5
5,0.5,0.5,1,167,5,474,2,2,1,232,non-noticers,-0.5
5,0.5,0.5,1,168,5,447,1,1,1,232,non-noticers,-0.5
5,0.5,0.5,1,169,5,420,2,2,1,232,non-noticers,-0.5
5,0.5,0.5,1,170,5,459,1,1,1,232,non-noticers,-0.5
5,0.5,0.5,1,171,5,560,2,2,1,232,non-noticers,-0.5
5,0.5,0.5,1,172,5,545,1,1,1,232,non-noticers,-0.5
5,0.5,0.5,1,173,5,499,1,1,1,232,non-noticers,-0.5
5,0.5,0.5,1,174,5,647,1,1,1,232,non-noticers,-0.5
5,0.5,0.5,1,175,5,581,2,2,1,232,non-noticers,-0.5
5,0.5,0.5,1,176,5,740,2,2,1,232,non-noticers,-0.5
5,0.5,0.5,1,177,5,494,2,2,1,232,non-noticers,-0.5
5,0.5,0.5,1,178,5,850,1,1,1,232,non-noticers,-0.5
5,0.5,0.5,1,179,5,680,1,1,1,232,non-noticers,-0.5
5,0.5,0.5,1,180,5,548,2,2,1,232,non-noticers,-0.5
5,0.5,0.5,1,181,5,598,1,1,1,232,non-noticers,-0.5
5,0.5,0.5,1,182,5,710,1,1,1,232,non-noticers,-0.5
5,0.5,0.5,1,183,5,529,2,2,1,232,non-noticers,-0.5
5,0.5,0.5,1,184,5,483,2,2,1,232,non-noticers,-0.5
5,0.5,0.5,1,185,5,679,1,1,1,232,non-noticers,-0.5
5,0.5,0.5,1,186,5,612,1,1,1,232,non-noticers,-0.5
5,0.5,0.5,1,187,5,468,2,2,1,232,non-noticers,-0.5
5,0.5,0.5,1,188,5,536,2,2,1,232,non-noticers,-0.5
5,0.5,0.5,1,189,5,538,1,1,1,232,non-noticers,-0.5
5,0.5,0.5,1,190,5,475,2,2,1,232,non-noticers,-0.5
5,0.5,0.5,1,191,5,608,1,1,1,232,non-noticers,-0.5
5,0.5,0.5,1,192,5,703,1,1,1,232,non-noticers,-0.5
5,0.5,0.5,1,193,5,507,1,1,1,232,non-noticers,-0.5
5,0.5,0.5,1,194,5,622,2,2,1,232,non-noticers,-0.5
5,0.5,0.5,1,195,5,525,2,2,1,232,non-noticers,-0.5
5,0.5,0.5,1,196,5,623,1,1,1,232,non-noticers,-0.5
5,0.5,0.5,1,197,5,733,2,2,1,232,non-noticers,-0.5
5,0.5,0.5,1,198,5,487,1,1,1,232,non-noticers,-0.5
5,0.5,0.5,1,199,5,539,2,2,1,232,non-noticers,-0.5
5,0.5,0.5,1,200,5,509,1,1,1,232,non-noticers,-0.5
5,0.5,0.5,1,201,6,529,1,1,1,232,non-noticers,-0.5
5,0.5,0.5,1,202,6,516,1,1,1,232,non-noticers,-0.5
5,0.5,0.5,1,203,6,487,2,2,1,232,non-noticers,-0.5
5,0.5,0.5,1,204,6,554,1,1,1,232,non-noticers,-0.5
5,0.5,0.5,1,205,6,523,2,2,1,232,non-noticers,-0.5
5,0.5,0.5,1,206,6,606,1,1,1,232,non-noticers,-0.5
5,0.5,0.5,1,207,6,813,1,1,1,232,non-noticers,-0.5
5,0.5,0.5,1,208,6,709,2,2,1,232,non-noticers,-0.5
5,0.5,0.5,1,209,6,800,1,1,1,232,non-noticers,-0.5
5,0.5,0.5,1,210,6,790,1,1,1,232,non-noticers,-0.5
5,0.5,0.5,1,211,6,510,2,2,1,232,non-noticers,-0.5
5,0.5,0.5,1,212,6,770,2,2,1,232,non-noticers,-0.5
5,0.5,0.5,1,213,6,1083,1,1,1,232,non-noticers,-0.5
5,0.5,0.5,1,214,6,631,2,2,1,232,non-noticers,-0.5
5,0.5,0.5,1,215,6,597,1,1,1,232,non-noticers,-0.5
5,0.5,0.5,1,216,6,469,1,1,1,232,non-noticers,-0.5
5,0.5,0.5,1,217,6,569,1,1,1,232,non-noticers,-0.5
5,0.5,0.5,1,218,6,538,1,1,1,232,non-noticers,-0.5
5,0.5,0.5,1,219,6,556,1,1,1,232,non-noticers,-0.5
5,0.5,0.5,1,220,6,605,2,2,1,232,non-noticers,-0.5
5,0.5,0.5,1,221,6,636,1,1,1,232,non-noticers,-0.5
5,0.5,0.5,1,222,6,554,2,2,1,232,non-noticers,-0.5
5,0.5,0.5,1,223,6,636,2,2,1,232,non-noticers,-0.5
5,0.5,0.5,1,224,6,665,1,1,1,232,non-noticers,-0.5
5,0.5,0.5,1,225,6,582,1,1,1,232,non-noticers,-0.5
5,0.5,0.5,1,226,6,566,2,2,1,232,non-noticers,-0.5
5,0.5,0.5,1,227,6,503,1,1,1,232,non-noticers,-0.5
5,0.5,0.5,1,228,6,570,1,1,1,232,non-noticers,-0.5
5,0.5,0.5,1,229,6,571,2,2,1,232,non-noticers,-0.5
5,0.5,0.5,1,230,6,604,1,1,1,232,non-noticers,-0.5
5,0.5,0.5,1,231,6,571,1,1,1,232,non-noticers,-0.5
5,0.5,0.5,1,232,6,443,2,2,1,232,non-noticers,-0.5
5,0.5,0.5,1,233,6,625,2,2,1,232,non-noticers,-0.5
5,0.5,0.5,1,234,6,975,2,2,1,232,non-noticers,-0.5
5,0.5,0.5,1,235,6,624,2,2,1,232,non-noticers,-0.5
5,0.5,0.5,1,236,6,447,1,1,1,232,non-noticers,-0.5
5,0.5,0.5,1,237,6,453,2,2,1,232,non-noticers,-0.5
5,0.5,0.5,1,238,6,586,2,2,1,232,non-noticers,-0.5
5,0.5,0.5,1,239,6,953,1,1,1,232,non-noticers,-0.5
5,0.5,0.5,1,240,6,682,1,2,0,232,non-noticers,-0.5
6,0.5,-0.5,2,1,1,1704,2,2,1,238,non-noticers,-0.5
6,0.5,-0.5,2,2,1,1548,2,1,0,238,non-noticers,-0.5
6,0.5,-0.5,2,3,1,1045,1,1,1,238,non-noticers,-0.5
6,0.5,-0.5,2,4,1,3619,1,1,1,238,non-noticers,-0.5
6,0.5,-0.5,2,5,1,762,2,2,1,238,non-noticers,-0.5
6,0.5,-0.5,2,6,1,1652,2,2,1,238,non-noticers,-0.5
6,0.5,-0.5,2,7,1,2265,2,2,1,238,non-noticers,-0.5
6,0.5,-0.5,2,8,1,678,2,2,1,238,non-noticers,-0.5
6,0.5,-0.5,2,9,1,1171,1,1,1,238,non-noticers,-0.5
6,0.5,-0.5,2,10,1,795,1,1,1,238,non-noticers,-0.5
6,0.5,-0.5,2,11,1,532,1,1,1,238,non-noticers,-0.5
6,0.5,-0.5,2,12,1,630,1,1,1,238,non-noticers,-0.5
6,0.5,-0.5,2,13,1,933,2,2,1,238,non-noticers,-0.5
6,0.5,-0.5,2,14,1,695,1,1,1,238,non-noticers,-0.5
6,0.5,-0.5,2,15,1,482,1,1,1,238,non-noticers,-0.5
6,0.5,-0.5,2,16,1,966,2,2,1,238,non-noticers,-0.5
6,0.5,-0.5,2,17,1,615,2,2,1,238,non-noticers,-0.5
6,0.5,-0.5,2,18,1,582,1,1,1,238,non-noticers,-0.5
6,0.5,-0.5,2,19,1,567,2,2,1,238,non-noticers,-0.5
6,0.5,-0.5,2,20,1,743,2,2,1,238,non-noticers,-0.5
6,0.5,-0.5,2,21,1,786,2,2,1,238,non-noticers,-0.5
6,0.5,-0.5,2,22,1,1177,2,2,1,238,non-noticers,-0.5
6,0.5,-0.5,2,23,1,865,2,2,1,238,non-noticers,-0.5
6,0.5,-0.5,2,24,1,790,2,2,1,238,non-noticers,-0.5
6,0.5,-0.5,2,25,1,750,2,2,1,238,non-noticers,-0.5
6,0.5,-0.5,2,26,1,632,1,1,1,238,non-noticers,-0.5
6,0.5,-0.5,2,27,1,678,2,2,1,238,non-noticers,-0.5
6,0.5,-0.5,2,28,1,514,1,1,1,238,non-noticers,-0.5
6,0.5,-0.5,2,29,1,805,1,1,1,238,non-noticers,-0.5
6,0.5,-0.5,2,30,1,557,2,2,1,238,non-noticers,-0.5
6,0.5,-0.5,2,31,1,494,1,1,1,238,non-noticers,-0.5
6,0.5,-0.5,2,32,1,1106,1,1,1,238,non-noticers,-0.5
6,0.5,-0.5,2,33,1,702,2,2,1,238,non-noticers,-0.5
6,0.5,-0.5,2,34,1,2169,1,1,1,238,non-noticers,-0.5
6,0.5,-0.5,2,35,1,633,2,2,1,238,non-noticers,-0.5
6,0.5,-0.5,2,36,1,567,2,2,1,238,non-noticers,-0.5
6,0.5,-0.5,2,37,1,584,1,1,1,238,non-noticers,-0.5
6,0.5,-0.5,2,38,1,1880,2,2,1,238,non-noticers,-0.5
6,0.5,-0.5,2,39,1,581,2,2,1,238,non-noticers,-0.5
6,0.5,-0.5,2,40,1,709,1,1,1,238,non-noticers,-0.5
6,0.5,-0.5,2,41,2,761,2,2,1,238,non-noticers,-0.5
6,0.5,-0.5,2,42,2,611,2,2,1,238,non-noticers,-0.5
6,0.5,-0.5,2,43,2,546,2,2,1,238,non-noticers,-0.5
6,0.5,-0.5,2,44,2,644,1,1,1,238,non-noticers,-0.5
6,0.5,-0.5,2,45,2,786,2,2,1,238,non-noticers,-0.5
6,0.5,-0.5,2,46,2,698,2,2,1,238,non-noticers,-0.5
6,0.5,-0.5,2,47,2,677,1,1,1,238,non-noticers,-0.5
6,0.5,-0.5,2,48,2,578,1,1,1,238,non-noticers,-0.5
6,0.5,-0.5,2,49,2,499,1,1,1,238,non-noticers,-0.5
6,0.5,-0.5,2,50,2,1271,1,1,1,238,non-noticers,-0.5
6,0.5,-0.5,2,51,2,859,1,1,1,238,non-noticers,-0.5
6,0.5,-0.5,2,52,2,705,1,1,1,238,non-noticers,-0.5
6,0.5,-0.5,2,53,2,604,2,2,1,238,non-noticers,-0.5
6,0.5,-0.5,2,54,2,586,2,2,1,238,non-noticers,-0.5
6,0.5,-0.5,2,55,2,987,2,2,1,238,non-noticers,-0.5
6,0.5,-0.5,2,56,2,587,1,1,1,238,non-noticers,-0.5
6,0.5,-0.5,2,57,2,539,2,2,1,238,non-noticers,-0.5
6,0.5,-0.5,2,58,2,605,1,1,1,238,non-noticers,-0.5
6,0.5,-0.5,2,59,2,556,2,2,1,238,non-noticers,-0.5
6,0.5,-0.5,2,60,2,509,1,1,1,238,non-noticers,-0.5
6,0.5,-0.5,2,61,2,512,1,1,1,238,non-noticers,-0.5
6,0.5,-0.5,2,62,2,419,1,2,0,238,non-noticers,-0.5
6,0.5,-0.5,2,63,2,746,2,2,1,238,non-noticers,-0.5
6,0.5,-0.5,2,64,2,1316,2,2,1,238,non-noticers,-0.5
6,0.5,-0.5,2,65,2,631,1,1,1,238,non-noticers,-0.5
6,0.5,-0.5,2,66,2,597,1,1,1,238,non-noticers,-0.5
6,0.5,-0.5,2,67,2,581,2,2,1,238,non-noticers,-0.5
6,0.5,-0.5,2,68,2,613,1,1,1,238,non-noticers,-0.5
6,0.5,-0.5,2,69,2,644,2,2,1,238,non-noticers,-0.5
6,0.5,-0.5,2,70,2,1154,1,1,1,238,non-noticers,-0.5
6,0.5,-0.5,2,71,2,924,2,2,1,238,non-noticers,-0.5
6,0.5,-0.5,2,72,2,767,2,2,1,238,non-noticers,-0.5
6,0.5,-0.5,2,73,2,871,2,2,1,238,non-noticers,-0.5
6,0.5,-0.5,2,74,2,763,1,1,1,238,non-noticers,-0.5
6,0.5,-0.5,2,75,2,804,1,1,1,238,non-noticers,-0.5
6,0.5,-0.5,2,76,2,1116,1,1,1,238,non-noticers,-0.5
6,0.5,-0.5,2,77,2,871,2,2,1,238,non-noticers,-0.5
6,0.5,-0.5,2,78,2,1275,1,1,1,238,non-noticers,-0.5
6,0.5,-0.5,2,79,2,560,1,1,1,238,non-noticers,-0.5
6,0.5,-0.5,2,80,2,673,2,2,1,238,non-noticers,-0.5
6,0.5,-0.5,2,81,3,751,1,1,1,238,non-noticers,-0.5
6,0.5,-0.5,2,82,3,713,2,2,1,238,non-noticers,-0.5
6,0.5,-0.5,2,83,3,628,1,1,1,238,non-noticers,-0.5
6,0.5,-0.5,2,84,3,739,1,1,1,238,non-noticers,-0.5
6,0.5,-0.5,2,85,3,637,2,2,1,238,non-noticers,-0.5
6,0.5,-0.5,2,86,3,667,1,1,1,238,non-noticers,-0.5
6,0.5,-0.5,2,87,3,647,2,2,1,238,non-noticers,-0.5
6,0.5,-0.5,2,88,3,645,1,1,1,238,non-noticers,-0.5
6,0.5,-0.5,2,89,3,707,1,1,1,238,non-noticers,-0.5
6,0.5,-0.5,2,90,3,654,1,1,1,238,non-noticers,-0.5
6,0.5,-0.5,2,91,3,1036,2,2,1,238,non-noticers,-0.5
6,0.5,-0.5,2,92,3,490,2,2,1,238,non-noticers,-0.5
6,0.5,-0.5,2,93,3,574,2,2,1,238,non-noticers,-0.5
6,0.5,-0.5,2,94,3,685,1,1,1,238,non-noticers,-0.5
6,0.5,-0.5,2,95,3,809,1,1,1,238,non-noticers,-0.5
6,0.5,-0.5,2,96,3,625,1,1,1,238,non-noticers,-0.5
6,0.5,-0.5,2,97,3,1471,1,1,1,238,non-noticers,-0.5
6,0.5,-0.5,2,98,3,812,1,1,1,238,non-noticers,-0.5
6,0.5,-0.5,2,99,3,612,1,1,1,238,non-noticers,-0.5
6,0.5,-0.5,2,100,3,611,2,2,1,238,non-noticers,-0.5
6,0.5,-0.5,2,101,3,481,2,2,1,238,non-noticers,-0.5
6,0.5,-0.5,2,102,3,710,1,1,1,238,non-noticers,-0.5
6,0.5,-0.5,2,103,3,689,2,2,1,238,non-noticers,-0.5
6,0.5,-0.5,2,104,3,717,1,1,1,238,non-noticers,-0.5
6,0.5,-0.5,2,105,3,696,1,1,1,238,non-noticers,-0.5
6,0.5,-0.5,2,106,3,644,1,1,1,238,non-noticers,-0.5
6,0.5,-0.5,2,107,3,610,1,1,1,238,non-noticers,-0.5
6,0.5,-0.5,2,108,3,737,2,2,1,238,non-noticers,-0.5
6,0.5,-0.5,2,109,3,587,1,1,1,238,non-noticers,-0.5
6,0.5,-0.5,2,110,3,891,2,2,1,238,non-noticers,-0.5
6,0.5,-0.5,2,111,3,607,1,1,1,238,non-noticers,-0.5
6,0.5,-0.5,2,112,3,590,2,2,1,238,non-noticers,-0.5
6,0.5,-0.5,2,113,3,542,2,2,1,238,non-noticers,-0.5
6,0.5,-0.5,2,114,3,592,2,2,1,238,non-noticers,-0.5
6,0.5,-0.5,2,115,3,495,2,2,1,238,non-noticers,-0.5
6,0.5,-0.5,2,116,3,643,2,2,1,238,non-noticers,-0.5
6,0.5,-0.5,2,117,3,641,1,1,1,238,non-noticers,-0.5
6,0.5,-0.5,2,118,3,607,1,1,1,238,non-noticers,-0.5
6,0.5,-0.5,2,119,3,511,1,1,1,238,non-noticers,-0.5
6,0.5,-0.5,2,120,3,754,1,1,1,238,non-noticers,-0.5
6,0.5,-0.5,2,121,4,968,2,2,1,238,non-noticers,-0.5
6,0.5,-0.5,2,122,4,537,2,2,1,238,non-noticers,-0.5
6,0.5,-0.5,2,123,4,555,2,2,1,238,non-noticers,-0.5
6,0.5,-0.5,2,124,4,652,2,2,1,238,non-noticers,-0.5
6,0.5,-0.5,2,125,4,617,1,1,1,238,non-noticers,-0.5
6,0.5,-0.5,2,126,4,712,2,2,1,238,non-noticers,-0.5
6,0.5,-0.5,2,127,4,483,1,1,1,238,non-noticers,-0.5
6,0.5,-0.5,2,128,4,790,2,2,1,238,non-noticers,-0.5
6,0.5,-0.5,2,129,4,511,1,1,1,238,non-noticers,-0.5
6,0.5,-0.5,2,130,4,738,1,1,1,238,non-noticers,-0.5
6,0.5,-0.5,2,131,4,604,2,2,1,238,non-noticers,-0.5
6,0.5,-0.5,2,132,4,795,2,2,1,238,non-noticers,-0.5
6,0.5,-0.5,2,133,4,627,2,2,1,238,non-noticers,-0.5
6,0.5,-0.5,2,134,4,706,2,2,1,238,non-noticers,-0.5
6,0.5,-0.5,2,135,4,604,1,1,1,238,non-noticers,-0.5
6,0.5,-0.5,2,136,4,1324,1,1,1,238,non-noticers,-0.5
6,0.5,-0.5,2,137,4,607,2,2,1,238,non-noticers,-0.5
6,0.5,-0.5,2,138,4,638,2,2,1,238,non-noticers,-0.5
6,0.5,-0.5,2,139,4,1020,2,2,1,238,non-noticers,-0.5
6,0.5,-0.5,2,140,4,1131,1,1,1,238,non-noticers,-0.5
6,0.5,-0.5,2,141,4,598,1,1,1,238,non-noticers,-0.5
6,0.5,-0.5,2,142,4,629,1,1,1,238,non-noticers,-0.5
6,0.5,-0.5,2,143,4,1571,1,1,1,238,non-noticers,-0.5
6,0.5,-0.5,2,144,4,876,1,1,1,238,non-noticers,-0.5
6,0.5,-0.5,2,145,4,849,2,2,1,238,non-noticers,-0.5
6,0.5,-0.5,2,146,4,1318,1,1,1,238,non-noticers,-0.5
6,0.5,-0.5,2,147,4,889,1,1,1,238,non-noticers,-0.5
6,0.5,-0.5,2,148,4,812,2,2,1,238,non-noticers,-0.5
6,0.5,-0.5,2,149,4,548,1,1,1,238,non-noticers,-0.5
6,0.5,-0.5,2,150,4,742,1,1,1,238,non-noticers,-0.5
6,0.5,-0.5,2,151,4,608,2,2,1,238,non-noticers,-0.5
6,0.5,-0.5,2,152,4,575,2,2,1,238,non-noticers,-0.5
6,0.5,-0.5,2,153,4,480,2,2,1,238,non-noticers,-0.5
6,0.5,-0.5,2,154,4,532,1,1,1,238,non-noticers,-0.5
6,0.5,-0.5,2,155,4,582,1,1,1,238,non-noticers,-0.5
6,0.5,-0.5,2,156,4,454,2,2,1,238,non-noticers,-0.5
6,0.5,-0.5,2,157,4,539,1,1,1,238,non-noticers,-0.5
6,0.5,-0.5,2,158,4,509,2,2,1,238,non-noticers,-0.5
6,0.5,-0.5,2,159,4,577,1,1,1,238,non-noticers,-0.5
6,0.5,-0.5,2,160,4,513,1,1,1,238,non-noticers,-0.5
6,0.5,-0.5,2,161,5,646,2,2,1,238,non-noticers,-0.5
6,0.5,-0.5,2,162,5,627,1,1,1,238,non-noticers,-0.5
6,0.5,-0.5,2,163,5,1249,1,1,1,238,non-noticers,-0.5
6,0.5,-0.5,2,164,5,1079,2,2,1,238,non-noticers,-0.5
6,0.5,-0.5,2,165,5,804,1,1,1,238,non-noticers,-0.5
6,0.5,-0.5,2,166,5,987,1,1,1,238,non-noticers,-0.5
6,0.5,-0.5,2,167,5,731,1,1,1,238,non-noticers,-0.5
6,0.5,-0.5,2,168,5,630,1,1,1,238,non-noticers,-0.5
6,0.5,-0.5,2,169,5,516,1,1,1,238,non-noticers,-0.5
6,0.5,-0.5,2,170,5,1174,1,1,1,238,non-noticers,-0.5
6,0.5,-0.5,2,171,5,879,1,1,1,238,non-noticers,-0.5
6,0.5,-0.5,2,172,5,1044,1,1,1,238,non-noticers,-0.5
6,0.5,-0.5,2,173,5,626,2,2,1,238,non-noticers,-0.5
6,0.5,-0.5,2,174,5,625,1,1,1,238,non-noticers,-0.5
6,0.5,-0.5,2,175,5,702,2,2,1,238,non-noticers,-0.5
6,0.5,-0.5,2,176,5,634,2,2,1,238,non-noticers,-0.5
6,0.5,-0.5,2,177,5,552,2,2,1,238,non-noticers,-0.5
6,0.5,-0.5,2,178,5,649,2,2,1,238,non-noticers,-0.5
6,0.5,-0.5,2,179,5,662,2,2,1,238,non-noticers,-0.5
6,0.5,-0.5,2,180,5,612,1,1,1,238,non-noticers,-0.5
6,0.5,-0.5,2,181,5,627,2,2,1,238,non-noticers,-0.5
6,0.5,-0.5,2,182,5,657,2,2,1,238,non-noticers,-0.5
6,0.5,-0.5,2,183,5,510,2,2,1,238,non-noticers,-0.5
6,0.5,-0.5,2,184,5,626,2,2,1,238,non-noticers,-0.5
6,0.5,-0.5,2,185,5,592,2,2,1,238,non-noticers,-0.5
6,0.5,-0.5,2,186,5,528,1,1,1,238,non-noticers,-0.5
6,0.5,-0.5,2,187,5,515,1,1,1,238,non-noticers,-0.5
6,0.5,-0.5,2,188,5,598,1,1,1,238,non-noticers,-0.5
6,0.5,-0.5,2,189,5,629,2,2,1,238,non-noticers,-0.5
6,0.5,-0.5,2,190,5,756,2,2,1,238,non-noticers,-0.5
6,0.5,-0.5,2,191,5,621,2,2,1,238,non-noticers,-0.5
6,0.5,-0.5,2,192,5,844,1,1,1,238,non-noticers,-0.5
6,0.5,-0.5,2,193,5,594,1,1,1,238,non-noticers,-0.5
6,0.5,-0.5,2,194,5,802,1,1,1,238,non-noticers,-0.5
6,0.5,-0.5,2,195,5,1514,1,1,1,238,non-noticers,-0.5
6,0.5,-0.5,2,196,5,596,1,1,1,238,non-noticers,-0.5
6,0.5,-0.5,2,197,5,612,1,1,1,238,non-noticers,-0.5
6,0.5,-0.5,2,198,5,627,1,1,1,238,non-noticers,-0.5
6,0.5,-0.5,2,199,5,642,1,1,1,238,non-noticers,-0.5
6,0.5,-0.5,2,200,5,608,2,2,1,238,non-noticers,-0.5
6,0.5,-0.5,2,201,6,729,2,2,1,238,non-noticers,-0.5
6,0.5,-0.5,2,202,6,659,1,1,1,238,non-noticers,-0.5
6,0.5,-0.5,2,203,6,688,2,2,1,238,non-noticers,-0.5
6,0.5,-0.5,2,204,6,476,2,2,1,238,non-noticers,-0.5
6,0.5,-0.5,2,205,6,465,2,2,1,238,non-noticers,-0.5
6,0.5,-0.5,2,206,6,518,2,2,1,238,non-noticers,-0.5
6,0.5,-0.5,2,207,6,505,2,2,1,238,non-noticers,-0.5
6,0.5,-0.5,2,208,6,492,2,2,1,238,non-noticers,-0.5
6,0.5,-0.5,2,209,6,576,2,2,1,238,non-noticers,-0.5
6,0.5,-0.5,2,210,6,400,2,2,1,238,non-noticers,-0.5
6,0.5,-0.5,2,211,6,503,2,2,1,238,non-noticers,-0.5
6,0.5,-0.5,2,212,6,651,1,1,1,238,non-noticers,-0.5
6,0.5,-0.5,2,213,6,600,2,2,1,238,non-noticers,-0.5
6,0.5,-0.5,2,214,6,855,2,2,1,238,non-noticers,-0.5
6,0.5,-0.5,2,215,6,1005,2,2,1,238,non-noticers,-0.5
6,0.5,-0.5,2,216,6,875,1,1,1,238,non-noticers,-0.5
6,0.5,-0.5,2,217,6,816,2,2,1,238,non-noticers,-0.5
6,0.5,-0.5,2,218,6,791,1,1,1,238,non-noticers,-0.5
6,0.5,-0.5,2,219,6,1087,1,1,1,238,non-noticers,-0.5
6,0.5,-0.5,2,220,6,763,1,1,1,238,non-noticers,-0.5
6,0.5,-0.5,2,221,6,900,2,2,1,238,non-noticers,-0.5
6,0.5,-0.5,2,222,6,1560,1,1,1,238,non-noticers,-0.5
6,0.5,-0.5,2,223,6,1616,1,1,1,238,non-noticers,-0.5
6,0.5,-0.5,2,224,6,823,1,1,1,238,non-noticers,-0.5
6,0.5,-0.5,2,225,6,606,1,1,1,238,non-noticers,-0.5
6,0.5,-0.5,2,226,6,541,1,1,1,238,non-noticers,-0.5
6,0.5,-0.5,2,227,6,591,2,2,1,238,non-noticers,-0.5
6,0.5,-0.5,2,228,6,1135,1,1,1,238,non-noticers,-0.5
6,0.5,-0.5,2,229,6,696,2,2,1,238,non-noticers,-0.5
6,0.5,-0.5,2,230,6,596,1,1,1,238,non-noticers,-0.5
6,0.5,-0.5,2,231,6,548,2,2,1,238,non-noticers,-0.5
6,0.5,-0.5,2,232,6,662,1,1,1,238,non-noticers,-0.5
6,0.5,-0.5,2,233,6,628,2,2,1,238,non-noticers,-0.5
6,0.5,-0.5,2,234,6,546,2,2,1,238,non-noticers,-0.5
6,0.5,-0.5,2,235,6,596,2,2,1,238,non-noticers,-0.5
6,0.5,-0.5,2,236,6,595,2,2,1,238,non-noticers,-0.5
6,0.5,-0.5,2,237,6,819,2,2,1,238,non-noticers,-0.5
6,0.5,-0.5,2,238,6,554,2,2,1,238,non-noticers,-0.5
6,0.5,-0.5,2,239,6,668,1,1,1,238,non-noticers,-0.5
6,0.5,-0.5,2,240,6,648,2,2,1,238,non-noticers,-0.5
7,-0.5,0.5,3,1,1,2625,1,1,0,231,noticers,0.5
7,-0.5,0.5,3,2,1,1963,2,1,1,231,noticers,0.5
7,-0.5,0.5,3,3,1,1408,2,1,1,231,noticers,0.5
7,-0.5,0.5,3,4,1,1162,1,2,1,231,noticers,0.5
7,-0.5,0.5,3,5,1,3488,2,2,0,231,noticers,0.5
7,-0.5,0.5,3,6,1,1623,1,1,0,231,noticers,0.5
7,-0.5,0.5,3,7,1,1657,2,1,1,231,noticers,0.5
7,-0.5,0.5,3,8,1,810,2,1,1,231,noticers,0.5
7,-0.5,0.5,3,9,1,1726,2,2,0,231,noticers,0.5
7,-0.5,0.5,3,10,1,2524,1,1,0,231,noticers,0.5
7,-0.5,0.5,3,11,1,3434,1,1,0,231,noticers,0.5
7,-0.5,0.5,3,12,1,1683,2,1,1,231,noticers,0.5
7,-0.5,0.5,3,13,1,1828,2,1,1,231,noticers,0.5
7,-0.5,0.5,3,14,1,958,2,1,1,231,noticers,0.5
7,-0.5,0.5,3,15,1,876,2,2,0,231,noticers,0.5
7,-0.5,0.5,3,16,1,2284,2,1,1,231,noticers,0.5
7,-0.5,0.5,3,17,1,1764,2,1,1,231,noticers,0.5
7,-0.5,0.5,3,18,1,1857,1,1,0,231,noticers,0.5
7,-0.5,0.5,3,19,1,1242,2,1,1,231,noticers,0.5
7,-0.5,0.5,3,20,1,780,2,1,1,231,noticers,0.5
7,-0.5,0.5,3,21,1,705,2,1,1,231,noticers,0.5
7,-0.5,0.5,3,22,1,888,1,2,1,231,noticers,0.5
7,-0.5,0.5,3,23,1,1033,2,1,1,231,noticers,0.5
7,-0.5,0.5,3,24,1,899,1,2,1,231,noticers,0.5
7,-0.5,0.5,3,25,1,1155,1,2,1,231,noticers,0.5
7,-0.5,0.5,3,26,1,921,2,1,1,231,noticers,0.5
7,-0.5,0.5,3,27,1,1768,2,1,1,231,noticers,0.5
7,-0.5,0.5,3,28,1,837,1,2,1,231,noticers,0.5
7,-0.5,0.5,3,29,1,903,2,1,1,231,noticers,0.5
7,-0.5,0.5,3,30,1,1158,2,1,1,231,noticers,0.5
7,-0.5,0.5,3,31,1,3260,1,2,1,231,noticers,0.5
7,-0.5,0.5,3,32,1,2860,1,2,1,231,noticers,0.5
7,-0.5,0.5,3,33,1,876,2,1,1,231,noticers,0.5
7,-0.5,0.5,3,34,1,877,1,2,1,231,noticers,0.5
7,-0.5,0.5,3,35,1,2606,1,2,1,231,noticers,0.5
7,-0.5,0.5,3,36,1,1016,2,1,1,231,noticers,0.5
7,-0.5,0.5,3,37,1,1140,2,1,1,231,noticers,0.5
7,-0.5,0.5,3,38,1,634,2,1,1,231,noticers,0.5
7,-0.5,0.5,3,39,1,565,2,1,1,231,noticers,0.5
7,-0.5,0.5,3,40,1,755,1,2,1,231,noticers,0.5
7,-0.5,0.5,3,41,2,4426,2,1,1,231,noticers,0.5
7,-0.5,0.5,3,42,2,2378,2,2,0,231,noticers,0.5
7,-0.5,0.5,3,43,2,1118,1,2,1,231,noticers,0.5
7,-0.5,0.5,3,44,2,677,2,1,1,231,noticers,0.5
7,-0.5,0.5,3,45,2,943,2,1,1,231,noticers,0.5
7,-0.5,0.5,3,46,2,813,1,2,1,231,noticers,0.5
7,-0.5,0.5,3,47,2,1489,1,2,1,231,noticers,0.5
7,-0.5,0.5,3,48,2,4536,2,1,1,231,noticers,0.5
7,-0.5,0.5,3,49,2,820,1,2,1,231,noticers,0.5
7,-0.5,0.5,3,50,2,1479,2,1,1,231,noticers,0.5
7,-0.5,0.5,3,51,2,1616,2,1,1,231,noticers,0.5
7,-0.5,0.5,3,52,2,835,1,2,1,231,noticers,0.5
7,-0.5,0.5,3,53,2,2166,1,2,1,231,noticers,0.5
7,-0.5,0.5,3,54,2,802,2,1,1,231,noticers,0.5
7,-0.5,0.5,3,55,2,950,1,2,1,231,noticers,0.5
7,-0.5,0.5,3,56,2,1059,2,1,1,231,noticers,0.5
7,-0.5,0.5,3,57,2,1661,2,1,1,231,noticers,0.5
7,-0.5,0.5,3,58,2,1550,1,2,1,231,noticers,0.5
7,-0.5,0.5,3,59,2,2740,1,2,1,231,noticers,0.5
7,-0.5,0.5,3,60,2,1432,1,2,1,231,noticers,0.5
7,-0.5,0.5,3,61,2,947,2,1,1,231,noticers,0.5
7,-0.5,0.5,3,62,2,1249,2,1,1,231,noticers,0.5
7,-0.5,0.5,3,63,2,1299,1,2,1,231,noticers,0.5
7,-0.5,0.5,3,64,2,4932,1,2,1,231,noticers,0.5
7,-0.5,0.5,3,65,2,1616,1,2,1,231,noticers,0.5
7,-0.5,0.5,3,66,2,1714,2,1,1,231,noticers,0.5
7,-0.5,0.5,3,67,2,1953,1,2,1,231,noticers,0.5
7,-0.5,0.5,3,68,2,1974,1,2,1,231,noticers,0.5
7,-0.5,0.5,3,69,2,1755,1,2,1,231,noticers,0.5
7,-0.5,0.5,3,70,2,1352,2,1,1,231,noticers,0.5
7,-0.5,0.5,3,71,2,3109,2,1,1,231,noticers,0.5
7,-0.5,0.5,3,72,2,1514,1,2,1,231,noticers,0.5
7,-0.5,0.5,3,73,2,2322,1,2,1,231,noticers,0.5
7,-0.5,0.5,3,74,2,9880,1,2,1,231,noticers,0.5
7,-0.5,0.5,3,75,2,1626,1,2,1,231,noticers,0.5
7,-0.5,0.5,3,76,2,1133,2,1,1,231,noticers,0.5
7,-0.5,0.5,3,77,2,1635,1,2,1,231,noticers,0.5
7,-0.5,0.5,3,78,2,1141,1,2,1,231,noticers,0.5
7,-0.5,0.5,3,79,2,6059,1,2,1,231,noticers,0.5
7,-0.5,0.5,3,80,2,2713,1,2,1,231,noticers,0.5
7,-0.5,0.5,3,81,3,3476,2,1,1,231,noticers,0.5
7,-0.5,0.5,3,82,3,588,2,1,1,231,noticers,0.5
7,-0.5,0.5,3,83,3,520,1,2,1,231,noticers,0.5
7,-0.5,0.5,3,84,3,680,2,1,1,231,noticers,0.5
7,-0.5,0.5,3,85,3,865,2,1,1,231,noticers,0.5
7,-0.5,0.5,3,86,3,579,2,1,1,231,noticers,0.5
7,-0.5,0.5,3,87,3,385,1,2,1,231,noticers,0.5
7,-0.5,0.5,3,88,3,661,1,2,1,231,noticers,0.5
7,-0.5,0.5,3,89,3,703,2,1,1,231,noticers,0.5
7,-0.5,0.5,3,90,3,1175,1,2,1,231,noticers,0.5
7,-0.5,0.5,3,91,3,1836,1,2,1,231,noticers,0.5
7,-0.5,0.5,3,92,3,805,2,1,1,231,noticers,0.5
7,-0.5,0.5,3,93,3,1417,2,1,1,231,noticers,0.5
7,-0.5,0.5,3,94,3,868,2,1,1,231,noticers,0.5
7,-0.5,0.5,3,95,3,580,2,1,1,231,noticers,0.5
7,-0.5,0.5,3,96,3,770,1,2,1,231,noticers,0.5
7,-0.5,0.5,3,97,3,1303,2,1,1,231,noticers,0.5
7,-0.5,0.5,3,98,3,2263,1,2,1,231,noticers,0.5
7,-0.5,0.5,3,99,3,1423,2,1,1,231,noticers,0.5
7,-0.5,0.5,3,100,3,1482,1,2,1,231,noticers,0.5
7,-0.5,0.5,3,101,3,5442,1,2,1,231,noticers,0.5
7,-0.5,0.5,3,102,3,857,2,1,1,231,noticers,0.5
7,-0.5,0.5,3,103,3,1163,2,1,1,231,noticers,0.5
7,-0.5,0.5,3,104,3,7168,2,1,1,231,noticers,0.5
7,-0.5,0.5,3,105,3,5904,1,2,1,231,noticers,0.5
7,-0.5,0.5,3,106,3,3732,1,2,1,231,noticers,0.5
7,-0.5,0.5,3,107,3,4353,1,2,1,231,noticers,0.5
7,-0.5,0.5,3,108,3,5380,1,2,1,231,noticers,0.5
7,-0.5,0.5,3,109,3,1118,2,1,1,231,noticers,0.5
7,-0.5,0.5,3,110,3,2004,1,2,1,231,noticers,0.5
7,-0.5,0.5,3,111,3,1703,1,2,1,231,noticers,0.5
7,-0.5,0.5,3,112,3,1062,1,2,1,231,noticers,0.5
7,-0.5,0.5,3,113,3,3136,1,2,1,231,noticers,0.5
7,-0.5,0.5,3,114,3,2197,2,1,1,231,noticers,0.5
7,-0.5,0.5,3,115,3,9007,1,2,1,231,noticers,0.5
7,-0.5,0.5,3,116,3,2949,2,1,1,231,noticers,0.5
7,-0.5,0.5,3,117,3,2338,1,2,1,231,noticers,0.5
7,-0.5,0.5,3,118,3,1271,2,1,1,231,noticers,0.5
7,-0.5,0.5,3,119,3,1991,2,1,1,231,noticers,0.5
7,-0.5,0.5,3,120,3,1579,1,2,1,231,noticers,0.5
7,-0.5,0.5,3,121,4,1195,2,1,1,231,noticers,0.5
7,-0.5,0.5,3,122,4,2863,1,2,1,231,noticers,0.5
7,-0.5,0.5,3,123,4,1312,1,2,1,231,noticers,0.5
7,-0.5,0.5,3,124,4,831,1,2,1,231,noticers,0.5
7,-0.5,0.5,3,125,4,3121,1,2,1,231,noticers,0.5
7,-0.5,0.5,3,126,4,663,2,1,1,231,noticers,0.5
7,-0.5,0.5,3,127,4,673,2,1,1,231,noticers,0.5
7,-0.5,0.5,3,128,4,458,2,1,1,231,noticers,0.5
7,-0.5,0.5,3,129,4,637,1,2,1,231,noticers,0.5
7,-0.5,0.5,3,130,4,871,2,1,1,231,noticers,0.5
7,-0.5,0.5,3,131,4,841,1,2,1,231,noticers,0.5
7,-0.5,0.5,3,132,4,554,2,1,1,231,noticers,0.5
7,-0.5,0.5,3,133,4,680,1,2,1,231,noticers,0.5
7,-0.5,0.5,3,134,4,2466,1,2,1,231,noticers,0.5
7,-0.5,0.5,3,135,4,5826,2,1,1,231,noticers,0.5
7,-0.5,0.5,3,136,4,1066,2,1,1,231,noticers,0.5
7,-0.5,0.5,3,137,4,1075,1,2,1,231,noticers,0.5
7,-0.5,0.5,3,138,4,2827,1,2,1,231,noticers,0.5
7,-0.5,0.5,3,139,4,2221,2,1,1,231,noticers,0.5
7,-0.5,0.5,3,140,4,1831,2,1,1,231,noticers,0.5
7,-0.5,0.5,3,141,4,1346,1,2,1,231,noticers,0.5
7,-0.5,0.5,3,142,4,1296,2,1,1,231,noticers,0.5
7,-0.5,0.5,3,143,4,1424,2,1,1,231,noticers,0.5
7,-0.5,0.5,3,144,4,1754,2,1,1,231,noticers,0.5
7,-0.5,0.5,3,145,4,1271,2,1,1,231,noticers,0.5
7,-0.5,0.5,3,146,4,1384,2,1,1,231,noticers,0.5
7,-0.5,0.5,3,147,4,1572,1,2,1,231,noticers,0.5
7,-0.5,0.5,3,148,4,2233,2,1,1,231,noticers,0.5
7,-0.5,0.5,3,149,4,2835,2,1,1,231,noticers,0.5
7,-0.5,0.5,3,150,4,1172,1,2,1,231,noticers,0.5
7,-0.5,0.5,3,151,4,2441,2,1,1,231,noticers,0.5
7,-0.5,0.5,3,152,4,1306,1,2,1,231,noticers,0.5
7,-0.5,0.5,3,153,4,2857,1,2,1,231,noticers,0.5
7,-0.5,0.5,3,154,4,2330,1,2,1,231,noticers,0.5
7,-0.5,0.5,3,155,4,1536,1,2,1,231,noticers,0.5
7,-0.5,0.5,3,156,4,997,2,1,1,231,noticers,0.5
7,-0.5,0.5,3,157,4,1665,1,2,1,231,noticers,0.5
7,-0.5,0.5,3,158,4,963,2,1,1,231,noticers,0.5
7,-0.5,0.5,3,159,4,912,1,2,1,231,noticers,0.5
7,-0.5,0.5,3,160,4,2912,1,2,1,231,noticers,0.5
7,-0.5,0.5,3,161,5,2184,2,1,1,231,noticers,0.5
7,-0.5,0.5,3,162,5,740,2,1,1,231,noticers,0.5
7,-0.5,0.5,3,163,5,890,1,2,1,231,noticers,0.5
7,-0.5,0.5,3,164,5,779,1,2,1,231,noticers,0.5
7,-0.5,0.5,3,165,5,752,1,2,1,231,noticers,0.5
7,-0.5,0.5,3,166,5,550,1,2,1,231,noticers,0.5
7,-0.5,0.5,3,167,5,483,2,1,1,231,noticers,0.5
7,-0.5,0.5,3,168,5,628,2,1,1,231,noticers,0.5
7,-0.5,0.5,3,169,5,752,1,2,1,231,noticers,0.5
7,-0.5,0.5,3,170,5,710,1,2,1,231,noticers,0.5
7,-0.5,0.5,3,171,5,1342,1,2,1,231,noticers,0.5
7,-0.5,0.5,3,172,5,1052,1,2,1,231,noticers,0.5
7,-0.5,0.5,3,173,5,981,2,1,1,231,noticers,0.5
7,-0.5,0.5,3,174,5,1474,1,2,1,231,noticers,0.5
7,-0.5,0.5,3,175,5,1338,1,2,1,231,noticers,0.5
7,-0.5,0.5,3,176,5,1913,1,2,1,231,noticers,0.5
7,-0.5,0.5,3,177,5,864,2,1,1,231,noticers,0.5
7,-0.5,0.5,3,178,5,626,2,1,1,231,noticers,0.5
7,-0.5,0.5,3,179,5,1293,2,1,1,231,noticers,0.5
7,-0.5,0.5,3,180,5,605,1,2,1,231,noticers,0.5
7,-0.5,0.5,3,181,5,1128,2,1,1,231,noticers,0.5
7,-0.5,0.5,3,182,5,575,2,1,1,231,noticers,0.5
7,-0.5,0.5,3,183,5,957,2,1,1,231,noticers,0.5
7,-0.5,0.5,3,184,5,747,2,1,1,231,noticers,0.5
7,-0.5,0.5,3,185,5,865,2,1,1,231,noticers,0.5
7,-0.5,0.5,3,186,5,851,2,1,1,231,noticers,0.5
7,-0.5,0.5,3,187,5,2069,2,1,1,231,noticers,0.5
7,-0.5,0.5,3,188,5,1412,1,2,1,231,noticers,0.5
7,-0.5,0.5,3,189,5,1168,1,2,1,231,noticers,0.5
7,-0.5,0.5,3,190,5,1317,2,1,1,231,noticers,0.5
7,-0.5,0.5,3,191,5,3300,2,1,1,231,noticers,0.5
7,-0.5,0.5,3,192,5,1138,1,2,1,231,noticers,0.5
7,-0.5,0.5,3,193,5,4105,1,2,1,231,noticers,0.5
7,-0.5,0.5,3,194,5,1093,1,2,1,231,noticers,0.5
7,-0.5,0.5,3,195,5,1485,2,1,1,231,noticers,0.5
7,-0.5,0.5,3,196,5,1845,1,2,1,231,noticers,0.5
7,-0.5,0.5,3,197,5,2191,1,2,1,231,noticers,0.5
7,-0.5,0.5,3,198,5,1019,1,2,1,231,noticers,0.5
7,-0.5,0.5,3,199,5,1990,1,2,1,231,noticers,0.5
7,-0.5,0.5,3,200,5,1273,2,1,1,231,noticers,0.5
7,-0.5,0.5,3,201,6,2686,2,1,1,231,noticers,0.5
7,-0.5,0.5,3,202,6,582,1,2,1,231,noticers,0.5
7,-0.5,0.5,3,203,6,739,1,2,1,231,noticers,0.5
7,-0.5,0.5,3,204,6,1498,2,1,1,231,noticers,0.5
7,-0.5,0.5,3,205,6,770,1,2,1,231,noticers,0.5
7,-0.5,0.5,3,206,6,1238,1,2,1,231,noticers,0.5
7,-0.5,0.5,3,207,6,856,2,1,1,231,noticers,0.5
7,-0.5,0.5,3,208,6,1050,1,2,1,231,noticers,0.5
7,-0.5,0.5,3,209,6,1012,2,1,1,231,noticers,0.5
7,-0.5,0.5,3,210,6,800,2,1,1,231,noticers,0.5
7,-0.5,0.5,3,211,6,1236,1,2,1,231,noticers,0.5
7,-0.5,0.5,3,212,6,1366,1,2,1,231,noticers,0.5
7,-0.5,0.5,3,213,6,1122,1,2,1,231,noticers,0.5
7,-0.5,0.5,3,214,6,1449,1,2,1,231,noticers,0.5
7,-0.5,0.5,3,215,6,1140,2,1,1,231,noticers,0.5
7,-0.5,0.5,3,216,6,1002,2,1,1,231,noticers,0.5
7,-0.5,0.5,3,217,6,1078,1,2,1,231,noticers,0.5
7,-0.5,0.5,3,218,6,1487,1,2,1,231,noticers,0.5
7,-0.5,0.5,3,219,6,823,2,1,1,231,noticers,0.5
7,-0.5,0.5,3,220,6,1561,1,2,1,231,noticers,0.5
7,-0.5,0.5,3,221,6,1310,2,1,1,231,noticers,0.5
7,-0.5,0.5,3,222,6,1454,2,1,1,231,noticers,0.5
7,-0.5,0.5,3,223,6,663,2,1,1,231,noticers,0.5
7,-0.5,0.5,3,224,6,737,2,1,1,231,noticers,0.5
7,-0.5,0.5,3,225,6,488,2,1,1,231,noticers,0.5
7,-0.5,0.5,3,226,6,601,1,2,1,231,noticers,0.5
7,-0.5,0.5,3,227,6,1509,1,2,1,231,noticers,0.5
7,-0.5,0.5,3,228,6,1003,1,2,1,231,noticers,0.5
7,-0.5,0.5,3,229,6,4199,1,2,1,231,noticers,0.5
7,-0.5,0.5,3,230,6,1313,2,1,1,231,noticers,0.5
7,-0.5,0.5,3,231,6,2257,2,1,1,231,noticers,0.5
7,-0.5,0.5,3,232,6,1786,1,2,1,231,noticers,0.5
7,-0.5,0.5,3,233,6,1460,1,2,1,231,noticers,0.5
7,-0.5,0.5,3,234,6,1134,1,2,1,231,noticers,0.5
7,-0.5,0.5,3,235,6,596,2,1,1,231,noticers,0.5
7,-0.5,0.5,3,236,6,1041,2,1,1,231,noticers,0.5
7,-0.5,0.5,3,237,6,1003,2,1,1,231,noticers,0.5
7,-0.5,0.5,3,238,6,999,1,2,1,231,noticers,0.5
7,-0.5,0.5,3,239,6,1524,2,1,1,231,noticers,0.5
7,-0.5,0.5,3,240,6,1273,2,1,1,231,noticers,0.5
8,-0.5,-0.5,4,1,1,1405,1,1,0,228,non-noticers,-0.5
8,-0.5,-0.5,4,2,1,1196,2,2,0,228,non-noticers,-0.5
8,-0.5,-0.5,4,3,1,1108,2,2,0,228,non-noticers,-0.5
8,-0.5,-0.5,4,4,1,1807,1,1,0,228,non-noticers,-0.5
8,-0.5,-0.5,4,5,1,735,1,2,1,228,non-noticers,-0.5
8,-0.5,-0.5,4,6,1,1001,1,1,0,228,non-noticers,-0.5
8,-0.5,-0.5,4,7,1,1464,2,1,1,228,non-noticers,-0.5
8,-0.5,-0.5,4,8,1,2549,1,2,1,228,non-noticers,-0.5
8,-0.5,-0.5,4,9,1,1814,2,2,0,228,non-noticers,-0.5
8,-0.5,-0.5,4,10,1,1318,2,2,0,228,non-noticers,-0.5
8,-0.5,-0.5,4,11,1,1113,2,2,0,228,non-noticers,-0.5
8,-0.5,-0.5,4,12,1,1028,2,2,0,228,non-noticers,-0.5
8,-0.5,-0.5,4,13,1,4978,1,2,1,228,non-noticers,-0.5
8,-0.5,-0.5,4,14,1,2532,1,2,1,228,non-noticers,-0.5
8,-0.5,-0.5,4,15,1,1718,1,1,0,228,non-noticers,-0.5
8,-0.5,-0.5,4,16,1,1993,2,1,1,228,non-noticers,-0.5
8,-0.5,-0.5,4,17,1,833,1,2,1,228,non-noticers,-0.5
8,-0.5,-0.5,4,18,1,1096,1,2,1,228,non-noticers,-0.5
8,-0.5,-0.5,4,19,1,1059,2,1,1,228,non-noticers,-0.5
8,-0.5,-0.5,4,20,1,1632,2,1,1,228,non-noticers,-0.5
8,-0.5,-0.5,4,21,1,502,1,2,1,228,non-noticers,-0.5
8,-0.5,-0.5,4,22,1,634,1,2,1,228,non-noticers,-0.5
8,-0.5,-0.5,4,23,1,888,2,1,1,228,non-noticers,-0.5
8,-0.5,-0.5,4,24,1,556,1,2,1,228,non-noticers,-0.5
8,-0.5,-0.5,4,25,1,940,1,2,1,228,non-noticers,-0.5
8,-0.5,-0.5,4,26,1,430,2,1,1,228,non-noticers,-0.5
8,-0.5,-0.5,4,27,1,805,1,2,1,228,non-noticers,-0.5
8,-0.5,-0.5,4,28,1,556,2,1,1,228,non-noticers,-0.5
8,-0.5,-0.5,4,29,1,590,1,2,1,228,non-noticers,-0.5
8,-0.5,-0.5,4,30,1,782,1,2,1,228,non-noticers,-0.5
8,-0.5,-0.5,4,31,1,1238,1,2,1,228,non-noticers,-0.5
8,-0.5,-0.5,4,32,1,763,1,2,1,228,non-noticers,-0.5
8,-0.5,-0.5,4,33,1,629,2,1,1,228,non-noticers,-0.5
8,-0.5,-0.5,4,34,1,692,1,2,1,228,non-noticers,-0.5
8,-0.5,-0.5,4,35,1,832,2,1,1,228,non-noticers,-0.5
8,-0.5,-0.5,4,36,1,726,2,1,1,228,non-noticers,-0.5
8,-0.5,-0.5,4,37,1,513,1,2,1,228,non-noticers,-0.5
8,-0.5,-0.5,4,38,1,916,2,1,1,228,non-noticers,-0.5
8,-0.5,-0.5,4,39,1,998,2,1,1,228,non-noticers,-0.5
8,-0.5,-0.5,4,40,1,806,2,1,1,228,non-noticers,-0.5
8,-0.5,-0.5,4,41,2,1404,2,1,1,228,non-noticers,-0.5
8,-0.5,-0.5,4,42,2,604,1,2,1,228,non-noticers,-0.5
8,-0.5,-0.5,4,43,2,843,2,1,1,228,non-noticers,-0.5
8,-0.5,-0.5,4,44,2,560,2,1,1,228,non-noticers,-0.5
8,-0.5,-0.5,4,45,2,994,2,1,1,228,non-noticers,-0.5
8,-0.5,-0.5,4,46,2,1026,2,1,1,228,non-noticers,-0.5
8,-0.5,-0.5,4,47,2,641,1,2,1,228,non-noticers,-0.5
8,-0.5,-0.5,4,48,2,1343,1,2,1,228,non-noticers,-0.5
8,-0.5,-0.5,4,49,2,577,2,1,1,228,non-noticers,-0.5
8,-0.5,-0.5,4,50,2,1216,2,1,1,228,non-noticers,-0.5
8,-0.5,-0.5,4,51,2,615,1,2,1,228,non-noticers,-0.5
8,-0.5,-0.5,4,52,2,646,1,2,1,228,non-noticers,-0.5
8,-0.5,-0.5,4,53,2,916,2,1,1,228,non-noticers,-0.5
8,-0.5,-0.5,4,54,2,583,2,1,1,228,non-noticers,-0.5
8,-0.5,-0.5,4,55,2,887,2,1,1,228,non-noticers,-0.5
8,-0.5,-0.5,4,56,2,907,2,1,1,228,non-noticers,-0.5
8,-0.5,-0.5,4,57,2,685,2,1,1,228,non-noticers,-0.5
8,-0.5,-0.5,4,58,2,649,2,1,1,228,non-noticers,-0.5
8,-0.5,-0.5,4,59,2,439,1,2,1,228,non-noticers,-0.5
8,-0.5,-0.5,4,60,2,397,1,2,1,228,non-noticers,-0.5
8,-0.5,-0.5,4,61,2,613,2,1,1,228,non-noticers,-0.5
8,-0.5,-0.5,4,62,2,628,2,1,1,228,non-noticers,-0.5
8,-0.5,-0.5,4,63,2,691,1,2,1,228,non-noticers,-0.5
8,-0.5,-0.5,4,64,2,1038,1,2,1,228,non-noticers,-0.5
8,-0.5,-0.5,4,65,2,716,1,2,1,228,non-noticers,-0.5
8,-0.5,-0.5,4,66,2,487,1,2,1,228,non-noticers,-0.5
8,-0.5,-0.5,4,67,2,427,2,1,1,228,non-noticers,-0.5
8,-0.5,-0.5,4,68,2,769,1,2,1,228,non-noticers,-0.5
8,-0.5,-0.5,4,69,2,858,1,2,1,228,non-noticers,-0.5
8,-0.5,-0.5,4,70,2,559,1,2,1,228,non-noticers,-0.5
8,-0.5,-0.5,4,71,2,864,2,1,1,228,non-noticers,-0.5
8,-0.5,-0.5,4,72,2,1077,1,2,1,228,non-noticers,-0.5
8,-0.5,-0.5,4,73,2,1570,1,2,1,228,non-noticers,-0.5
8,-0.5,-0.5,4,74,2,1003,1,2,1,228,non-noticers,-0.5
8,-0.5,-0.5,4,75,2,474,1,2,1,228,non-noticers,-0.5
8,-0.5,-0.5,4,76,2,687,1,2,1,228,non-noticers,-0.5
8,-0.5,-0.5,4,77,2,603,2,1,1,228,non-noticers,-0.5
8,-0.5,-0.5,4,78,2,617,1,2,1,228,non-noticers,-0.5
8,-0.5,-0.5,4,79,2,1064,2,1,1,228,non-noticers,-0.5
8,-0.5,-0.5,4,80,2,853,2,1,1,228,non-noticers,-0.5
8,-0.5,-0.5,4,81,3,811,1,2,1,228,non-noticers,-0.5
8,-0.5,-0.5,4,82,3,658,2,1,1,228,non-noticers,-0.5
8,-0.5,-0.5,4,83,3,703,1,2,1,228,non-noticers,-0.5
8,-0.5,-0.5,4,84,3,635,2,1,1,228,non-noticers,-0.5
8,-0.5,-0.5,4,85,3,2041,1,2,1,228,non-noticers,-0.5
8,-0.5,-0.5,4,86,3,655,1,2,1,228,non-noticers,-0.5
8,-0.5,-0.5,4,87,3,700,2,1,1,228,non-noticers,-0.5
8,-0.5,-0.5,4,88,3,855,2,1,1,228,non-noticers,-0.5
8,-0.5,-0.5,4,89,3,732,2,1,1,228,non-noticers,-0.5
8,-0.5,-0.5,4,90,3,870,1,2,1,228,non-noticers,-0.5
8,-0.5,-0.5,4,91,3,827,2,1,1,228,non-noticers,-0.5
8,-0.5,-0.5,4,92,3,1570,1,2,1,228,non-noticers,-0.5
8,-0.5,-0.5,4,93,3,746,2,1,1,228,non-noticers,-0.5
8,-0.5,-0.5,4,94,3,580,1,2,1,228,non-noticers,-0.5
8,-0.5,-0.5,4,95,3,548,2,1,1,228,non-noticers,-0.5
8,-0.5,-0.5,4,96,3,1158,2,1,1,228,non-noticers,-0.5
8,-0.5,-0.5,4,97,3,672,1,2,1,228,non-noticers,-0.5
8,-0.5,-0.5,4,98,3,892,1,2,1,228,non-noticers,-0.5
8,-0.5,-0.5,4,99,3,560,2,1,1,228,non-noticers,-0.5
8,-0.5,-0.5,4,100,3,930,2,1,1,228,non-noticers,-0.5
8,-0.5,-0.5,4,101,3,564,2,1,1,228,non-noticers,-0.5
8,-0.5,-0.5,4,102,3,965,2,1,1,228,non-noticers,-0.5
8,-0.5,-0.5,4,103,3,662,1,2,1,228,non-noticers,-0.5
8,-0.5,-0.5,4,104,3,772,1,2,1,228,non-noticers,-0.5
8,-0.5,-0.5,4,105,3,2364,1,1,0,228,non-noticers,-0.5
8,-0.5,-0.5,4,106,3,630,2,1,1,228,non-noticers,-0.5
8,-0.5,-0.5,4,107,3,581,2,1,1,228,non-noticers,-0.5
8,-0.5,-0.5,4,108,3,596,1,2,1,228,non-noticers,-0.5
8,-0.5,-0.5,4,109,3,532,2,1,1,228,non-noticers,-0.5
8,-0.5,-0.5,4,110,3,710,1,2,1,228,non-noticers,-0.5
8,-0.5,-0.5,4,111,3,658,1,2,1,228,non-noticers,-0.5
8,-0.5,-0.5,4,112,3,447,1,2,1,228,non-noticers,-0.5
8,-0.5,-0.5,4,113,3,501,1,2,1,228,non-noticers,-0.5
8,-0.5,-0.5,4,114,3,585,1,2,1,228,non-noticers,-0.5
8,-0.5,-0.5,4,115,3,600,1,2,1,228,non-noticers,-0.5
8,-0.5,-0.5,4,116,3,599,2,1,1,228,non-noticers,-0.5
8,-0.5,-0.5,4,117,3,566,2,1,1,228,non-noticers,-0.5
8,-0.5,-0.5,4,118,3,423,1,1,0,228,non-noticers,-0.5
8,-0.5,-0.5,4,119,3,782,1,2,1,228,non-noticers,-0.5
8,-0.5,-0.5,4,120,3,630,2,1,1,228,non-noticers,-0.5
8,-0.5,-0.5,4,121,4,724,1,2,1,228,non-noticers,-0.5
8,-0.5,-0.5,4,122,4,478,2,1,1,228,non-noticers,-0.5
8,-0.5,-0.5,4,123,4,595,1,2,1,228,non-noticers,-0.5
8,-0.5,-0.5,4,124,4,675,1,2,1,228,non-noticers,-0.5
8,-0.5,-0.5,4,125,4,480,2,1,1,228,non-noticers,-0.5
8,-0.5,-0.5,4,126,4,580,1,2,1,228,non-noticers,-0.5
8,-0.5,-0.5,4,127,4,469,1,2,1,228,non-noticers,-0.5
8,-0.5,-0.5,4,128,4,441,2,1,1,228,non-noticers,-0.5
8,-0.5,-0.5,4,129,4,559,1,2,1,228,non-noticers,-0.5
8,-0.5,-0.5,4,130,4,688,1,2,1,228,non-noticers,-0.5
8,-0.5,-0.5,4,131,4,508,2,1,1,228,non-noticers,-0.5
8,-0.5,-0.5,4,132,4,592,1,2,1,228,non-noticers,-0.5
8,-0.5,-0.5,4,133,4,624,1,2,1,228,non-noticers,-0.5
8,-0.5,-0.5,4,134,4,606,2,1,1,228,non-noticers,-0.5
8,-0.5,-0.5,4,135,4,893,2,1,1,228,non-noticers,-0.5
8,-0.5,-0.5,4,136,4,593,2,1,1,228,non-noticers,-0.5
8,-0.5,-0.5,4,137,4,913,2,1,1,228,non-noticers,-0.5
8,-0.5,-0.5,4,138,4,580,2,1,1,228,non-noticers,-0.5
8,-0.5,-0.5,4,139,4,549,1,2,1,228,non-noticers,-0.5
8,-0.5,-0.5,4,140,4,855,1,2,1,228,non-noticers,-0.5
8,-0.5,-0.5,4,141,4,556,1,2,1,228,non-noticers,-0.5
8,-0.5,-0.5,4,142,4,541,1,2,1,228,non-noticers,-0.5
8,-0.5,-0.5,4,143,4,463,2,1,1,228,non-noticers,-0.5
8,-0.5,-0.5,4,144,4,628,2,1,1,228,non-noticers,-0.5
8,-0.5,-0.5,4,145,4,707,2,1,1,228,non-noticers,-0.5
8,-0.5,-0.5,4,146,4,766,1,2,1,228,non-noticers,-0.5
8,-0.5,-0.5,4,147,4,503,1,2,1,228,non-noticers,-0.5
8,-0.5,-0.5,4,148,4,666,1,2,1,228,non-noticers,-0.5
8,-0.5,-0.5,4,149,4,663,2,1,1,228,non-noticers,-0.5
8,-0.5,-0.5,4,150,4,851,1,2,1,228,non-noticers,-0.5
8,-0.5,-0.5,4,151,4,648,2,1,1,228,non-noticers,-0.5
8,-0.5,-0.5,4,152,4,502,2,1,1,228,non-noticers,-0.5
8,-0.5,-0.5,4,153,4,538,2,1,1,228,non-noticers,-0.5
8,-0.5,-0.5,4,154,4,556,1,2,1,228,non-noticers,-0.5
8,-0.5,-0.5,4,155,4,941,1,2,1,228,non-noticers,-0.5
8,-0.5,-0.5,4,156,4,686,1,2,1,228,non-noticers,-0.5
8,-0.5,-0.5,4,157,4,1018,1,2,1,228,non-noticers,-0.5
8,-0.5,-0.5,4,158,4,777,2,1,1,228,non-noticers,-0.5
8,-0.5,-0.5,4,159,4,770,2,1,1,228,non-noticers,-0.5
8,-0.5,-0.5,4,160,4,699,1,2,1,228,non-noticers,-0.5
8,-0.5,-0.5,4,161,5,761,1,2,1,228,non-noticers,-0.5
8,-0.5,-0.5,4,162,5,643,2,1,1,228,non-noticers,-0.5
8,-0.5,-0.5,4,163,5,897,2,1,1,228,non-noticers,-0.5
8,-0.5,-0.5,4,164,5,645,1,2,1,228,non-noticers,-0.5
8,-0.5,-0.5,4,165,5,1411,1,2,1,228,non-noticers,-0.5
8,-0.5,-0.5,4,166,5,482,2,1,1,228,non-noticers,-0.5
8,-0.5,-0.5,4,167,5,646,1,2,1,228,non-noticers,-0.5
8,-0.5,-0.5,4,168,5,531,2,1,1,228,non-noticers,-0.5
8,-0.5,-0.5,4,169,5,502,1,2,1,228,non-noticers,-0.5
8,-0.5,-0.5,4,170,5,649,2,1,1,228,non-noticers,-0.5
8,-0.5,-0.5,4,171,5,519,1,2,1,228,non-noticers,-0.5
8,-0.5,-0.5,4,172,5,537,2,1,1,228,non-noticers,-0.5
8,-0.5,-0.5,4,173,5,540,2,1,1,228,non-noticers,-0.5
8,-0.5,-0.5,4,174,5,702,1,2,1,228,non-noticers,-0.5
8,-0.5,-0.5,4,175,5,696,2,1,1,228,non-noticers,-0.5
8,-0.5,-0.5,4,176,5,564,1,2,1,228,non-noticers,-0.5
8,-0.5,-0.5,4,177,5,2021,1,2,1,228,non-noticers,-0.5
8,-0.5,-0.5,4,178,5,556,2,1,1,228,non-noticers,-0.5
8,-0.5,-0.5,4,179,5,670,2,1,1,228,non-noticers,-0.5
8,-0.5,-0.5,4,180,5,554,1,2,1,228,non-noticers,-0.5
8,-0.5,-0.5,4,181,5,924,1,2,1,228,non-noticers,-0.5
8,-0.5,-0.5,4,182,5,605,2,1,1,228,non-noticers,-0.5
8,-0.5,-0.5,4,183,5,781,2,1,1,228,non-noticers,-0.5
8,-0.5,-0.5,4,184,5,597,2,1,1,228,non-noticers,-0.5
8,-0.5,-0.5,4,185,5,773,2,1,1,228,non-noticers,-0.5
8,-0.5,-0.5,4,186,5,1214,1,2,1,228,non-noticers,-0.5
8,-0.5,-0.5,4,187,5,742,1,2,1,228,non-noticers,-0.5
8,-0.5,-0.5,4,188,5,655,2,1,1,228,non-noticers,-0.5
8,-0.5,-0.5,4,189,5,876,2,1,1,228,non-noticers,-0.5
8,-0.5,-0.5,4,190,5,497,1,2,1,228,non-noticers,-0.5
8,-0.5,-0.5,4,191,5,837,2,1,1,228,non-noticers,-0.5
8,-0.5,-0.5,4,192,5,971,2,1,1,228,non-noticers,-0.5
8,-0.5,-0.5,4,193,5,556,2,1,1,228,non-noticers,-0.5
8,-0.5,-0.5,4,194,5,541,1,2,1,228,non-noticers,-0.5
8,-0.5,-0.5,4,195,5,655,1,2,1,228,non-noticers,-0.5
8,-0.5,-0.5,4,196,5,651,2,1,1,228,non-noticers,-0.5
8,-0.5,-0.5,4,197,5,713,1,2,1,228,non-noticers,-0.5
8,-0.5,-0.5,4,198,5,484,2,1,1,228,non-noticers,-0.5
8,-0.5,-0.5,4,199,5,824,2,1,1,228,non-noticers,-0.5
8,-0.5,-0.5,4,200,5,527,2,1,1,228,non-noticers,-0.5
8,-0.5,-0.5,4,201,6,743,1,2,1,228,non-noticers,-0.5
8,-0.5,-0.5,4,202,6,496,1,2,1,228,non-noticers,-0.5
8,-0.5,-0.5,4,203,6,468,2,1,1,228,non-noticers,-0.5
8,-0.5,-0.5,4,204,6,504,1,2,1,228,non-noticers,-0.5
8,-0.5,-0.5,4,205,6,396,2,1,1,228,non-noticers,-0.5
8,-0.5,-0.5,4,206,6,612,2,1,1,228,non-noticers,-0.5
8,-0.5,-0.5,4,207,6,627,1,2,1,228,non-noticers,-0.5
8,-0.5,-0.5,4,208,6,498,2,1,1,228,non-noticers,-0.5
8,-0.5,-0.5,4,209,6,485,1,2,1,228,non-noticers,-0.5
8,-0.5,-0.5,4,210,6,617,1,2,1,228,non-noticers,-0.5
8,-0.5,-0.5,4,211,6,487,2,1,1,228,non-noticers,-0.5
8,-0.5,-0.5,4,212,6,635,2,1,1,228,non-noticers,-0.5
8,-0.5,-0.5,4,213,6,585,2,1,1,228,non-noticers,-0.5
8,-0.5,-0.5,4,214,6,777,2,1,1,228,non-noticers,-0.5
8,-0.5,-0.5,4,215,6,1170,2,1,1,228,non-noticers,-0.5
8,-0.5,-0.5,4,216,6,826,1,2,1,228,non-noticers,-0.5
8,-0.5,-0.5,4,217,6,593,2,1,1,228,non-noticers,-0.5
8,-0.5,-0.5,4,218,6,689,2,1,1,228,non-noticers,-0.5
8,-0.5,-0.5,4,219,6,637,1,2,1,228,non-noticers,-0.5
8,-0.5,-0.5,4,220,6,747,2,1,1,228,non-noticers,-0.5
8,-0.5,-0.5,4,221,6,933,1,2,1,228,non-noticers,-0.5
8,-0.5,-0.5,4,222,6,487,2,1,1,228,non-noticers,-0.5
8,-0.5,-0.5,4,223,6,586,1,2,1,228,non-noticers,-0.5
8,-0.5,-0.5,4,224,6,602,2,1,1,228,non-noticers,-0.5
8,-0.5,-0.5,4,225,6,713,1,2,1,228,non-noticers,-0.5
8,-0.5,-0.5,4,226,6,580,1,2,1,228,non-noticers,-0.5
8,-0.5,-0.5,4,227,6,565,2,1,1,228,non-noticers,-0.5
8,-0.5,-0.5,4,228,6,487,1,2,1,228,non-noticers,-0.5
8,-0.5,-0.5,4,229,6,523,2,1,1,228,non-noticers,-0.5
8,-0.5,-0.5,4,230,6,700,2,1,1,228,non-noticers,-0.5
8,-0.5,-0.5,4,231,6,984,2,1,1,228,non-noticers,-0.5
8,-0.5,-0.5,4,232,6,824,1,2,1,228,non-noticers,-0.5
8,-0.5,-0.5,4,233,6,782,2,1,1,228,non-noticers,-0.5
8,-0.5,-0.5,4,234,6,1046,2,1,1,228,non-noticers,-0.5
8,-0.5,-0.5,4,235,6,517,1,2,1,228,non-noticers,-0.5
8,-0.5,-0.5,4,236,6,647,1,2,1,228,non-noticers,-0.5
8,-0.5,-0.5,4,237,6,676,2,1,1,228,non-noticers,-0.5
8,-0.5,-0.5,4,238,6,817,1,2,1,228,non-noticers,-0.5
8,-0.5,-0.5,4,239,6,792,1,2,1,228,non-noticers,-0.5
8,-0.5,-0.5,4,240,6,704,1,2,1,228,non-noticers,-0.5
9,0.5,0.5,1,1,1,4780,1,1,1,238,noticers,0.5
9,0.5,0.5,1,2,1,1038,2,2,1,238,noticers,0.5
9,0.5,0.5,1,3,1,743,1,1,1,238,noticers,0.5
9,0.5,0.5,1,4,1,638,1,1,1,238,noticers,0.5
9,0.5,0.5,1,5,1,1577,2,2,1,238,noticers,0.5
9,0.5,0.5,1,6,1,973,1,1,1,238,noticers,0.5
9,0.5,0.5,1,7,1,634,1,1,1,238,noticers,0.5
9,0.5,0.5,1,8,1,917,2,2,1,238,noticers,0.5
9,0.5,0.5,1,9,1,1940,1,1,1,238,noticers,0.5
9,0.5,0.5,1,10,1,1129,1,1,1,238,noticers,0.5
9,0.5,0.5,1,11,1,3136,1,1,1,238,noticers,0.5
9,0.5,0.5,1,12,1,821,2,2,1,238,noticers,0.5
9,0.5,0.5,1,13,1,1304,2,2,1,238,noticers,0.5
9,0.5,0.5,1,14,1,968,2,1,0,238,noticers,0.5
9,0.5,0.5,1,15,1,1781,1,1,1,238,noticers,0.5
9,0.5,0.5,1,16,1,1089,2,2,1,238,noticers,0.5
9,0.5,0.5,1,17,1,1065,2,2,1,238,noticers,0.5
9,0.5,0.5,1,18,1,1058,2,2,1,238,noticers,0.5
9,0.5,0.5,1,19,1,1468,2,2,1,238,noticers,0.5
9,0.5,0.5,1,20,1,2005,1,1,1,238,noticers,0.5
9,0.5,0.5,1,21,1,1256,2,2,1,238,noticers,0.5
9,0.5,0.5,1,22,1,1497,1,1,1,238,noticers,0.5
9,0.5,0.5,1,23,1,1280,2,2,1,238,noticers,0.5
9,0.5,0.5,1,24,1,1057,1,1,1,238,noticers,0.5
9,0.5,0.5,1,25,1,1339,1,1,1,238,noticers,0.5
9,0.5,0.5,1,26,1,969,2,2,1,238,noticers,0.5
9,0.5,0.5,1,27,1,1462,2,2,1,238,noticers,0.5
9,0.5,0.5,1,28,1,1024,1,1,1,238,noticers,0.5
9,0.5,0.5,1,29,1,1067,1,1,1,238,noticers,0.5
9,0.5,0.5,1,30,1,883,2,2,1,238,noticers,0.5
9,0.5,0.5,1,31,1,996,1,1,1,238,noticers,0.5
9,0.5,0.5,1,32,1,1872,1,1,1,238,noticers,0.5
9,0.5,0.5,1,33,1,2008,1,1,1,238,noticers,0.5
9,0.5,0.5,1,34,1,795,1,1,1,238,noticers,0.5
9,0.5,0.5,1,35,1,1616,2,2,1,238,noticers,0.5
9,0.5,0.5,1,36,1,723,1,1,1,238,noticers,0.5
9,0.5,0.5,1,37,1,666,1,1,1,238,noticers,0.5
9,0.5,0.5,1,38,1,1571,2,2,1,238,noticers,0.5
9,0.5,0.5,1,39,1,1352,2,2,1,238,noticers,0.5
9,0.5,0.5,1,40,1,693,2,2,1,238,noticers,0.5
9,0.5,0.5,1,41,2,4752,1,1,1,238,noticers,0.5
9,0.5,0.5,1,42,2,707,2,2,1,238,noticers,0.5
9,0.5,0.5,1,43,2,810,2,2,1,238,noticers,0.5
9,0.5,0.5,1,44,2,606,1,1,1,238,noticers,0.5
9,0.5,0.5,1,45,2,986,1,1,1,238,noticers,0.5
9,0.5,0.5,1,46,2,711,1,1,1,238,noticers,0.5
9,0.5,0.5,1,47,2,527,1,1,1,238,noticers,0.5
9,0.5,0.5,1,48,2,542,2,2,1,238,noticers,0.5
9,0.5,0.5,1,49,2,717,1,1,1,238,noticers,0.5
9,0.5,0.5,1,50,2,644,2,2,1,238,noticers,0.5
9,0.5,0.5,1,51,2,590,1,1,1,238,noticers,0.5
9,0.5,0.5,1,52,2,651,1,1,1,238,noticers,0.5
9,0.5,0.5,1,53,2,549,1,1,1,238,noticers,0.5
9,0.5,0.5,1,54,2,932,1,1,1,238,noticers,0.5
9,0.5,0.5,1,55,2,835,2,2,1,238,noticers,0.5
9,0.5,0.5,1,56,2,661,1,1,1,238,noticers,0.5
9,0.5,0.5,1,57,2,831,2,2,1,238,noticers,0.5
9,0.5,0.5,1,58,2,659,1,1,1,238,noticers,0.5
9,0.5,0.5,1,59,2,684,1,1,1,238,noticers,0.5
9,0.5,0.5,1,60,2,549,2,2,1,238,noticers,0.5
9,0.5,0.5,1,61,2,531,2,1,0,238,noticers,0.5
9,0.5,0.5,1,62,2,979,2,2,1,238,noticers,0.5
9,0.5,0.5,1,63,2,816,1,1,1,238,noticers,0.5
9,0.5,0.5,1,64,2,948,2,2,1,238,noticers,0.5
9,0.5,0.5,1,65,2,690,2,2,1,238,noticers,0.5
9,0.5,0.5,1,66,2,699,1,1,1,238,noticers,0.5
9,0.5,0.5,1,67,2,819,1,1,1,238,noticers,0.5
9,0.5,0.5,1,68,2,806,2,2,1,238,noticers,0.5
9,0.5,0.5,1,69,2,1162,1,1,1,238,noticers,0.5
9,0.5,0.5,1,70,2,1152,2,2,1,238,noticers,0.5
9,0.5,0.5,1,71,2,709,2,2,1,238,noticers,0.5
9,0.5,0.5,1,72,2,1021,2,2,1,238,noticers,0.5
9,0.5,0.5,1,73,2,824,1,1,1,238,noticers,0.5
9,0.5,0.5,1,74,2,971,1,1,1,238,noticers,0.5
9,0.5,0.5,1,75,2,712,2,2,1,238,noticers,0.5
9,0.5,0.5,1,76,2,1472,2,2,1,238,noticers,0.5
9,0.5,0.5,1,77,2,729,2,2,1,238,noticers,0.5
9,0.5,0.5,1,78,2,736,2,2,1,238,noticers,0.5
9,0.5,0.5,1,79,2,599,1,1,1,238,noticers,0.5
9,0.5,0.5,1,80,2,867,1,1,1,238,noticers,0.5
9,0.5,0.5,1,81,3,835,2,2,1,238,noticers,0.5
9,0.5,0.5,1,82,3,870,2,2,1,238,noticers,0.5
9,0.5,0.5,1,83,3,791,2,2,1,238,noticers,0.5
9,0.5,0.5,1,84,3,699,2,2,1,238,noticers,0.5
9,0.5,0.5,1,85,3,660,1,1,1,238,noticers,0.5
9,0.5,0.5,1,86,3,894,2,2,1,238,noticers,0.5
9,0.5,0.5,1,87,3,910,2,2,1,238,noticers,0.5
9,0.5,0.5,1,88,3,782,2,2,1,238,noticers,0.5
9,0.5,0.5,1,89,3,722,1,1,1,238,noticers,0.5
9,0.5,0.5,1,90,3,922,1,1,1,238,noticers,0.5
9,0.5,0.5,1,91,3,1817,1,1,1,238,noticers,0.5
9,0.5,0.5,1,92,3,2212,1,1,1,238,noticers,0.5
9,0.5,0.5,1,93,3,1871,1,1,1,238,noticers,0.5
9,0.5,0.5,1,94,3,6422,2,2,1,238,noticers,0.5
9,0.5,0.5,1,95,3,997,2,2,1,238,noticers,0.5
9,0.5,0.5,1,96,3,785,1,1,1,238,noticers,0.5
9,0.5,0.5,1,97,3,1606,2,2,1,238,noticers,0.5
9,0.5,0.5,1,98,3,889,1,1,1,238,noticers,0.5
9,0.5,0.5,1,99,3,1898,1,1,1,238,noticers,0.5
9,0.5,0.5,1,100,3,786,2,2,1,238,noticers,0.5
9,0.5,0.5,1,101,3,565,1,1,1,238,noticers,0.5
9,0.5,0.5,1,102,3,611,2,2,1,238,noticers,0.5
9,0.5,0.5,1,103,3,544,2,2,1,238,noticers,0.5
9,0.5,0.5,1,104,3,670,2,2,1,238,noticers,0.5
9,0.5,0.5,1,105,3,600,1,1,1,238,noticers,0.5
9,0.5,0.5,1,106,3,516,2,2,1,238,noticers,0.5
9,0.5,0.5,1,107,3,548,2,2,1,238,noticers,0.5
9,0.5,0.5,1,108,3,419,2,2,1,238,noticers,0.5
9,0.5,0.5,1,109,3,486,1,1,1,238,noticers,0.5
9,0.5,0.5,1,110,3,630,1,1,1,238,noticers,0.5
9,0.5,0.5,1,111,3,722,1,1,1,238,noticers,0.5
9,0.5,0.5,1,112,3,505,1,1,1,238,noticers,0.5
9,0.5,0.5,1,113,3,633,2,2,1,238,noticers,0.5
9,0.5,0.5,1,114,3,580,1,1,1,238,noticers,0.5
9,0.5,0.5,1,115,3,657,2,2,1,238,noticers,0.5
9,0.5,0.5,1,116,3,652,2,2,1,238,noticers,0.5
9,0.5,0.5,1,117,3,726,1,1,1,238,noticers,0.5
9,0.5,0.5,1,118,3,620,1,1,1,238,noticers,0.5
9,0.5,0.5,1,119,3,551,1,1,1,238,noticers,0.5
9,0.5,0.5,1,120,3,1765,2,2,1,238,noticers,0.5
9,0.5,0.5,1,121,4,1329,2,2,1,238,noticers,0.5
9,0.5,0.5,1,122,4,640,2,2,1,238,noticers,0.5
9,0.5,0.5,1,123,4,907,1,1,1,238,noticers,0.5
9,0.5,0.5,1,124,4,1227,2,2,1,238,noticers,0.5
9,0.5,0.5,1,125,4,557,2,2,1,238,noticers,0.5
9,0.5,0.5,1,126,4,587,1,1,1,238,noticers,0.5
9,0.5,0.5,1,127,4,3207,2,2,1,238,noticers,0.5
9,0.5,0.5,1,128,4,729,2,2,1,238,noticers,0.5
9,0.5,0.5,1,129,4,625,1,1,1,238,noticers,0.5
9,0.5,0.5,1,130,4,988,2,2,1,238,noticers,0.5
9,0.5,0.5,1,131,4,793,2,2,1,238,noticers,0.5
9,0.5,0.5,1,132,4,748,2,2,1,238,noticers,0.5
9,0.5,0.5,1,133,4,851,1,1,1,238,noticers,0.5
9,0.5,0.5,1,134,4,1061,1,1,1,238,noticers,0.5
9,0.5,0.5,1,135,4,703,2,2,1,238,noticers,0.5
9,0.5,0.5,1,136,4,647,1,1,1,238,noticers,0.5
9,0.5,0.5,1,137,4,977,1,1,1,238,noticers,0.5
9,0.5,0.5,1,138,4,671,1,1,1,238,noticers,0.5
9,0.5,0.5,1,139,4,504,1,1,1,238,noticers,0.5
9,0.5,0.5,1,140,4,1127,2,2,1,238,noticers,0.5
9,0.5,0.5,1,141,4,830,2,2,1,238,noticers,0.5
9,0.5,0.5,1,142,4,737,2,2,1,238,noticers,0.5
9,0.5,0.5,1,143,4,728,1,1,1,238,noticers,0.5
9,0.5,0.5,1,144,4,1103,1,1,1,238,noticers,0.5
9,0.5,0.5,1,145,4,631,2,2,1,238,noticers,0.5
9,0.5,0.5,1,146,4,1586,2,2,1,238,noticers,0.5
9,0.5,0.5,1,147,4,821,2,2,1,238,noticers,0.5
9,0.5,0.5,1,148,4,601,2,2,1,238,noticers,0.5
9,0.5,0.5,1,149,4,581,2,2,1,238,noticers,0.5
9,0.5,0.5,1,150,4,722,1,1,1,238,noticers,0.5
9,0.5,0.5,1,151,4,778,1,1,1,238,noticers,0.5
9,0.5,0.5,1,152,4,751,1,1,1,238,noticers,0.5
9,0.5,0.5,1,153,4,485,1,1,1,238,noticers,0.5
9,0.5,0.5,1,154,4,1318,2,2,1,238,noticers,0.5
9,0.5,0.5,1,155,4,612,2,2,1,238,noticers,0.5
9,0.5,0.5,1,156,4,736,1,1,1,238,noticers,0.5
9,0.5,0.5,1,157,4,902,1,1,1,238,noticers,0.5
9,0.5,0.5,1,158,4,1190,2,2,1,238,noticers,0.5
9,0.5,0.5,1,159,4,747,2,2,1,238,noticers,0.5
9,0.5,0.5,1,160,4,737,2,2,1,238,noticers,0.5
9,0.5,0.5,1,161,5,997,2,2,1,238,noticers,0.5
9,0.5,0.5,1,162,5,689,1,1,1,238,noticers,0.5
9,0.5,0.5,1,163,5,537,2,2,1,238,noticers,0.5
9,0.5,0.5,1,164,5,584,2,2,1,238,noticers,0.5
9,0.5,0.5,1,165,5,564,2,2,1,238,noticers,0.5
9,0.5,0.5,1,166,5,547,1,1,1,238,noticers,0.5
9,0.5,0.5,1,167,5,545,2,2,1,238,noticers,0.5
9,0.5,0.5,1,168,5,816,2,2,1,238,noticers,0.5
9,0.5,0.5,1,169,5,532,2,2,1,238,noticers,0.5
9,0.5,0.5,1,170,5,676,2,2,1,238,noticers,0.5
9,0.5,0.5,1,171,5,668,2,2,1,238,noticers,0.5
9,0.5,0.5,1,172,5,885,2,2,1,238,noticers,0.5
9,0.5,0.5,1,173,5,566,2,2,1,238,noticers,0.5
9,0.5,0.5,1,174,5,612,2,2,1,238,noticers,0.5
9,0.5,0.5,1,175,5,448,2,2,1,238,noticers,0.5
9,0.5,0.5,1,176,5,451,2,2,1,238,noticers,0.5
9,0.5,0.5,1,177,5,597,1,1,1,238,noticers,0.5
9,0.5,0.5,1,178,5,658,1,1,1,238,noticers,0.5
9,0.5,0.5,1,179,5,843,2,2,1,238,noticers,0.5
9,0.5,0.5,1,180,5,574,1,1,1,238,noticers,0.5
9,0.5,0.5,1,181,5,651,1,1,1,238,noticers,0.5
9,0.5,0.5,1,182,5,741,1,1,1,238,noticers,0.5
9,0.5,0.5,1,183,5,908,2,2,1,238,noticers,0.5
9,0.5,0.5,1,184,5,796,1,1,1,238,noticers,0.5
9,0.5,0.5,1,185,5,560,2,2,1,238,noticers,0.5
9,0.5,0.5,1,186,5,622,2,2,1,238,noticers,0.5
9,0.5,0.5,1,187,5,761,1,1,1,238,noticers,0.5
9,0.5,0.5,1,188,5,591,1,1,1,238,noticers,0.5
9,0.5,0.5,1,189,5,716,2,2,1,238,noticers,0.5
9,0.5,0.5,1,190,5,836,1,1,1,238,noticers,0.5
9,0.5,0.5,1,191,5,598,1,1,1,238,noticers,0.5
9,0.5,0.5,1,192,5,851,1,1,1,238,noticers,0.5
9,0.5,0.5,1,193,5,725,2,2,1,238,noticers,0.5
9,0.5,0.5,1,194,5,652,1,1,1,238,noticers,0.5
9,0.5,0.5,1,195,5,821,1,1,1,238,noticers,0.5
9,0.5,0.5,1,196,5,665,1,1,1,238,noticers,0.5
9,0.5,0.5,1,197,5,755,1,1,1,238,noticers,0.5
9,0.5,0.5,1,198,5,521,1,1,1,238,noticers,0.5
9,0.5,0.5,1,199,5,728,1,1,1,238,noticers,0.5
9,0.5,0.5,1,200,5,927,2,2,1,238,noticers,0.5
9,0.5,0.5,1,201,6,1112,1,1,1,238,noticers,0.5
9,0.5,0.5,1,202,6,1023,2,2,1,238,noticers,0.5
9,0.5,0.5,1,203,6,1274,1,1,1,238,noticers,0.5
9,0.5,0.5,1,204,6,1211,2,2,1,238,noticers,0.5
9,0.5,0.5,1,205,6,607,1,1,1,238,noticers,0.5
9,0.5,0.5,1,206,6,907,2,2,1,238,noticers,0.5
9,0.5,0.5,1,207,6,891,2,2,1,238,noticers,0.5
9,0.5,0.5,1,208,6,1723,1,1,1,238,noticers,0.5
9,0.5,0.5,1,209,6,730,1,1,1,238,noticers,0.5
9,0.5,0.5,1,210,6,1120,1,1,1,238,noticers,0.5
9,0.5,0.5,1,211,6,775,2,2,1,238,noticers,0.5
9,0.5,0.5,1,212,6,1356,2,2,1,238,noticers,0.5
9,0.5,0.5,1,213,6,794,1,1,1,238,noticers,0.5
9,0.5,0.5,1,214,6,862,1,1,1,238,noticers,0.5
9,0.5,0.5,1,215,6,592,2,2,1,238,noticers,0.5
9,0.5,0.5,1,216,6,893,2,2,1,238,noticers,0.5
9,0.5,0.5,1,217,6,797,2,2,1,238,noticers,0.5
9,0.5,0.5,1,218,6,721,1,1,1,238,noticers,0.5
9,0.5,0.5,1,219,6,489,1,1,1,238,noticers,0.5
9,0.5,0.5,1,220,6,842,2,2,1,238,noticers,0.5
9,0.5,0.5,1,221,6,620,2,2,1,238,noticers,0.5
9,0.5,0.5,1,222,6,728,1,1,1,238,noticers,0.5
9,0.5,0.5,1,223,6,1055,2,2,1,238,noticers,0.5
9,0.5,0.5,1,224,6,985,1,1,1,238,noticers,0.5
9,0.5,0.5,1,225,6,772,1,1,1,238,noticers,0.5
9,0.5,0.5,1,226,6,601,1,1,1,238,noticers,0.5
9,0.5,0.5,1,227,6,677,1,1,1,238,noticers,0.5
9,0.5,0.5,1,228,6,639,1,1,1,238,noticers,0.5
9,0.5,0.5,1,229,6,602,1,1,1,238,noticers,0.5
9,0.5,0.5,1,230,6,854,2,2,1,238,noticers,0.5
9,0.5,0.5,1,231,6,1192,1,1,1,238,noticers,0.5
9,0.5,0.5,1,232,6,620,2,2,1,238,noticers,0.5
9,0.5,0.5,1,233,6,678,1,1,1,238,noticers,0.5
9,0.5,0.5,1,234,6,624,2,2,1,238,noticers,0.5
9,0.5,0.5,1,235,6,971,1,1,1,238,noticers,0.5
9,0.5,0.5,1,236,6,1224,1,1,1,238,noticers,0.5
9,0.5,0.5,1,237,6,635,2,2,1,238,noticers,0.5
9,0.5,0.5,1,238,6,918,1,1,1,238,noticers,0.5
9,0.5,0.5,1,239,6,693,1,1,1,238,noticers,0.5
9,0.5,0.5,1,240,6,638,2,2,1,238,noticers,0.5
10,0.5,-0.5,2,1,1,13599,2,2,1,239,non-noticers,-0.5
10,0.5,-0.5,2,2,1,1769,1,1,1,239,non-noticers,-0.5
10,0.5,-0.5,2,3,1,762,2,2,1,239,non-noticers,-0.5
10,0.5,-0.5,2,4,1,2162,2,2,1,239,non-noticers,-0.5
10,0.5,-0.5,2,5,1,2132,2,1,0,239,non-noticers,-0.5
10,0.5,-0.5,2,6,1,2039,2,2,1,239,non-noticers,-0.5
10,0.5,-0.5,2,7,1,1117,1,1,1,239,non-noticers,-0.5
10,0.5,-0.5,2,8,1,1256,1,1,1,239,non-noticers,-0.5
10,0.5,-0.5,2,9,1,604,1,1,1,239,non-noticers,-0.5
10,0.5,-0.5,2,10,1,940,2,2,1,239,non-noticers,-0.5
10,0.5,-0.5,2,11,1,1182,1,1,1,239,non-noticers,-0.5
10,0.5,-0.5,2,12,1,551,1,1,1,239,non-noticers,-0.5
10,0.5,-0.5,2,13,1,856,1,1,1,239,non-noticers,-0.5
10,0.5,-0.5,2,14,1,573,2,2,1,239,non-noticers,-0.5
10,0.5,-0.5,2,15,1,925,2,2,1,239,non-noticers,-0.5
10,0.5,-0.5,2,16,1,1088,2,2,1,239,non-noticers,-0.5
10,0.5,-0.5,2,17,1,1100,2,2,1,239,non-noticers,-0.5
10,0.5,-0.5,2,18,1,647,2,2,1,239,non-noticers,-0.5
10,0.5,-0.5,2,19,1,453,2,2,1,239,non-noticers,-0.5
10,0.5,-0.5,2,20,1,427,2,2,1,239,non-noticers,-0.5
10,0.5,-0.5,2,21,1,529,1,1,1,239,non-noticers,-0.5
10,0.5,-0.5,2,22,1,611,2,2,1,239,non-noticers,-0.5
10,0.5,-0.5,2,23,1,546,2,2,1,239,non-noticers,-0.5
10,0.5,-0.5,2,24,1,452,2,2,1,239,non-noticers,-0.5
10,0.5,-0.5,2,25,1,618,2,2,1,239,non-noticers,-0.5
10,0.5,-0.5,2,26,1,504,2,2,1,239,non-noticers,-0.5
10,0.5,-0.5,2,27,1,508,2,2,1,239,non-noticers,-0.5
10,0.5,-0.5,2,28,1,687,2,2,1,239,non-noticers,-0.5
10,0.5,-0.5,2,29,1,507,1,1,1,239,non-noticers,-0.5
10,0.5,-0.5,2,30,1,461,1,1,1,239,non-noticers,-0.5
10,0.5,-0.5,2,31,1,499,1,1,1,239,non-noticers,-0.5
10,0.5,-0.5,2,32,1,630,1,1,1,239,non-noticers,-0.5
10,0.5,-0.5,2,33,1,533,2,2,1,239,non-noticers,-0.5
10,0.5,-0.5,2,34,1,727,1,1,1,239,non-noticers,-0.5
10,0.5,-0.5,2,35,1,1217,2,2,1,239,non-noticers,-0.5
10,0.5,-0.5,2,36,1,455,1,1,1,239,non-noticers,-0.5
10,0.5,-0.5,2,37,1,653,1,1,1,239,non-noticers,-0.5
10,0.5,-0.5,2,38,1,538,1,1,1,239,non-noticers,-0.5
10,0.5,-0.5,2,39,1,508,1,1,1,239,non-noticers,-0.5
10,0.5,-0.5,2,40,1,511,1,1,1,239,non-noticers,-0.5
10,0.5,-0.5,2,41,2,3773,1,1,1,239,non-noticers,-0.5
10,0.5,-0.5,2,42,2,895,1,1,1,239,non-noticers,-0.5
10,0.5,-0.5,2,43,2,467,1,1,1,239,non-noticers,-0.5
10,0.5,-0.5,2,44,2,504,1,1,1,239,non-noticers,-0.5
10,0.5,-0.5,2,45,2,651,2,2,1,239,non-noticers,-0.5
10,0.5,-0.5,2,46,2,680,2,2,1,239,non-noticers,-0.5
10,0.5,-0.5,2,47,2,581,2,2,1,239,non-noticers,-0.5
10,0.5,-0.5,2,48,2,517,1,1,1,239,non-noticers,-0.5
10,0.5,-0.5,2,49,2,775,2,2,1,239,non-noticers,-0.5
10,0.5,-0.5,2,50,2,1504,1,1,1,239,non-noticers,-0.5
10,0.5,-0.5,2,51,2,860,1,1,1,239,non-noticers,-0.5
10,0.5,-0.5,2,52,2,1937,2,2,1,239,non-noticers,-0.5
10,0.5,-0.5,2,53,2,619,2,2,1,239,non-noticers,-0.5
10,0.5,-0.5,2,54,2,713,1,1,1,239,non-noticers,-0.5
10,0.5,-0.5,2,55,2,516,1,1,1,239,non-noticers,-0.5
10,0.5,-0.5,2,56,2,983,1,1,1,239,non-noticers,-0.5
10,0.5,-0.5,2,57,2,1031,2,2,1,239,non-noticers,-0.5
10,0.5,-0.5,2,58,2,518,2,2,1,239,non-noticers,-0.5
10,0.5,-0.5,2,59,2,617,2,2,1,239,non-noticers,-0.5
10,0.5,-0.5,2,60,2,583,2,2,1,239,non-noticers,-0.5
10,0.5,-0.5,2,61,2,662,1,1,1,239,non-noticers,-0.5
10,0.5,-0.5,2,62,2,1156,2,2,1,239,non-noticers,-0.5
10,0.5,-0.5,2,63,2,541,1,1,1,239,non-noticers,-0.5
10,0.5,-0.5,2,64,2,463,1,1,1,239,non-noticers,-0.5
10,0.5,-0.5,2,65,2,1316,2,2,1,239,non-noticers,-0.5
10,0.5,-0.5,2,66,2,567,2,2,1,239,non-noticers,-0.5
10,0.5,-0.5,2,67,2,792,1,1,1,239,non-noticers,-0.5
10,0.5,-0.5,2,68,2,447,1,1,1,239,non-noticers,-0.5
10,0.5,-0.5,2,69,2,677,2,2,1,239,non-noticers,-0.5
10,0.5,-0.5,2,70,2,674,2,2,1,239,non-noticers,-0.5
10,0.5,-0.5,2,71,2,638,2,2,1,239,non-noticers,-0.5
10,0.5,-0.5,2,72,2,540,2,2,1,239,non-noticers,-0.5
10,0.5,-0.5,2,73,2,1150,2,2,1,239,non-noticers,-0.5
10,0.5,-0.5,2,74,2,456,1,1,1,239,non-noticers,-0.5
10,0.5,-0.5,2,75,2,684,1,1,1,239,non-noticers,-0.5
10,0.5,-0.5,2,76,2,536,2,2,1,239,non-noticers,-0.5
10,0.5,-0.5,2,77,2,1194,1,1,1,239,non-noticers,-0.5
10,0.5,-0.5,2,78,2,1138,1,1,1,239,non-noticers,-0.5
10,0.5,-0.5,2,79,2,3373,2,2,1,239,non-noticers,-0.5
10,0.5,-0.5,2,80,2,574,1,1,1,239,non-noticers,-0.5
10,0.5,-0.5,2,81,3,1898,1,1,1,239,non-noticers,-0.5
10,0.5,-0.5,2,82,3,694,1,1,1,239,non-noticers,-0.5
10,0.5,-0.5,2,83,3,770,1,1,1,239,non-noticers,-0.5
10,0.5,-0.5,2,84,3,523,2,2,1,239,non-noticers,-0.5
10,0.5,-0.5,2,85,3,510,2,2,1,239,non-noticers,-0.5
10,0.5,-0.5,2,86,3,592,2,2,1,239,non-noticers,-0.5
10,0.5,-0.5,2,87,3,1104,1,1,1,239,non-noticers,-0.5
10,0.5,-0.5,2,88,3,860,2,2,1,239,non-noticers,-0.5
10,0.5,-0.5,2,89,3,561,2,2,1,239,non-noticers,-0.5
10,0.5,-0.5,2,90,3,626,2,2,1,239,non-noticers,-0.5
10,0.5,-0.5,2,91,3,625,1,1,1,239,non-noticers,-0.5
10,0.5,-0.5,2,92,3,608,1,1,1,239,non-noticers,-0.5
10,0.5,-0.5,2,93,3,606,1,1,1,239,non-noticers,-0.5
10,0.5,-0.5,2,94,3,477,2,2,1,239,non-noticers,-0.5
10,0.5,-0.5,2,95,3,530,1,1,1,239,non-noticers,-0.5
10,0.5,-0.5,2,96,3,629,2,2,1,239,non-noticers,-0.5
10,0.5,-0.5,2,97,3,467,1,1,1,239,non-noticers,-0.5
10,0.5,-0.5,2,98,3,632,1,1,1,239,non-noticers,-0.5
10,0.5,-0.5,2,99,3,551,1,1,1,239,non-noticers,-0.5
10,0.5,-0.5,2,100,3,552,2,2,1,239,non-noticers,-0.5
10,0.5,-0.5,2,101,3,1641,1,1,1,239,non-noticers,-0.5
10,0.5,-0.5,2,102,3,655,1,1,1,239,non-noticers,-0.5
10,0.5,-0.5,2,103,3,924,1,1,1,239,non-noticers,-0.5
10,0.5,-0.5,2,104,3,463,2,2,1,239,non-noticers,-0.5
10,0.5,-0.5,2,105,3,548,2,2,1,239,non-noticers,-0.5
10,0.5,-0.5,2,106,3,518,2,2,1,239,non-noticers,-0.5
10,0.5,-0.5,2,107,3,2056,1,1,1,239,non-noticers,-0.5
10,0.5,-0.5,2,108,3,750,2,2,1,239,non-noticers,-0.5
10,0.5,-0.5,2,109,3,679,2,2,1,239,non-noticers,-0.5
10,0.5,-0.5,2,110,3,580,1,1,1,239,non-noticers,-0.5
10,0.5,-0.5,2,111,3,548,2,2,1,239,non-noticers,-0.5
10,0.5,-0.5,2,112,3,534,2,2,1,239,non-noticers,-0.5
10,0.5,-0.5,2,113,3,504,1,1,1,239,non-noticers,-0.5
10,0.5,-0.5,2,114,3,539,1,1,1,239,non-noticers,-0.5
10,0.5,-0.5,2,115,3,445,1,1,1,239,non-noticers,-0.5
10,0.5,-0.5,2,116,3,579,2,2,1,239,non-noticers,-0.5
10,0.5,-0.5,2,117,3,2211,1,1,1,239,non-noticers,-0.5
10,0.5,-0.5,2,118,3,723,2,2,1,239,non-noticers,-0.5
10,0.5,-0.5,2,119,3,1278,2,2,1,239,non-noticers,-0.5
10,0.5,-0.5,2,120,3,754,2,2,1,239,non-noticers,-0.5
10,0.5,-0.5,2,121,4,865,1,1,1,239,non-noticers,-0.5
10,0.5,-0.5,2,122,4,630,1,1,1,239,non-noticers,-0.5
10,0.5,-0.5,2,123,4,645,2,2,1,239,non-noticers,-0.5
10,0.5,-0.5,2,124,4,579,2,2,1,239,non-noticers,-0.5
10,0.5,-0.5,2,125,4,723,1,1,1,239,non-noticers,-0.5
10,0.5,-0.5,2,126,4,493,2,2,1,239,non-noticers,-0.5
10,0.5,-0.5,2,127,4,481,1,1,1,239,non-noticers,-0.5
10,0.5,-0.5,2,128,4,614,2,2,1,239,non-noticers,-0.5
10,0.5,-0.5,2,129,4,437,1,1,1,239,non-noticers,-0.5
10,0.5,-0.5,2,130,4,491,2,2,1,239,non-noticers,-0.5
10,0.5,-0.5,2,131,4,511,1,1,1,239,non-noticers,-0.5
10,0.5,-0.5,2,132,4,594,2,2,1,239,non-noticers,-0.5
10,0.5,-0.5,2,133,4,1154,2,2,1,239,non-noticers,-0.5
10,0.5,-0.5,2,134,4,555,1,1,1,239,non-noticers,-0.5
10,0.5,-0.5,2,135,4,588,2,2,1,239,non-noticers,-0.5
10,0.5,-0.5,2,136,4,988,2,2,1,239,non-noticers,-0.5
10,0.5,-0.5,2,137,4,476,1,1,1,239,non-noticers,-0.5
10,0.5,-0.5,2,138,4,449,1,1,1,239,non-noticers,-0.5
10,0.5,-0.5,2,139,4,598,1,1,1,239,non-noticers,-0.5
10,0.5,-0.5,2,140,4,566,2,2,1,239,non-noticers,-0.5
